numbers,stimuli,correctanswer,correctanswer2,condition,trials_2.thisRepN,trials_2.thisTrialN,trials_2.thisN,trials_2.thisIndex,key,accuracy,RTs,participant,gender,age,handedness,frameRate,expName,date
8,lawyer_8.png,a,g,t,1,2,10,6,a,1,0.2843360212,37,m,24,d,60.1277463,SNARC lie 1,2019_May_16_1648
7,lawyer_7.png,g,a,t,4,5,37,5,g,1,0.3175826259,38,f,21,d,60.00791881,SNARC lie 2,2019_May_16_1737
9,lawyer_9.png,g,a,t,0,5,5,7,g,1,0.3176449414,7,f,24,d,60.00171555,SNARC lie 1,2019_Apr_10_1010
3,lawyer_3.png,g,a,t,1,1,9,2,a,1,0.3176530057,8,m,27,d,60.02468695,SNARC lie 2,2019_Apr_10_1125
1,lawyer_1.png,g,a,t,4,7,39,0,a,1,0.3176684012,37,m,24,d,60.1277463,SNARC lie 1,2019_May_16_1648
8,lawyer_8.png,a,g,t,2,3,19,6,g,1,0.3177706713,18,f,23,d,60.01702786,SNARC lie 2,2019_Apr_18_1207
1,lawyer_1.png,g,a,t,3,5,29,0,a,1,0.3337332499,32,f,21,d,60.00791881,SNARC lie 2,2019_Apr_30_1358
9,lawyer_9.png,g,a,t,4,2,34,7,a,1,0.3337482791,32,f,21,d,60.00791881,SNARC lie 2,2019_Apr_30_1358
7,lawyer_7.png,g,a,t,1,2,10,5,a,1,0.3342273725,9,m,27,d,60.0087107,SNARC lie 1,2019_Apr_10_1212
6,lawyer_6.png,a,g,t,0,4,4,4,g,1,0.3343050834,35,m,21,d,60.01808426,SNARC lie 1,2019_May_16_1301
8,lawyer_8.png,a,g,t,1,2,10,6,g,1,0.3343083826,27,f,24,d,60.02257397,SNARC lie 1,2019_Apr_29_1114
2,lawyer_2.png,a,g,t,1,3,11,1,a,1,0.3343380739,25,m,19,s,60.01491534,SNARC lie 1,2019_Apr_24_1610
7,lawyer_7.png,g,a,t,4,1,33,5,a,1,0.3343399065,23,f,24,d,60.01161484,SNARC lie 1,2019_Apr_18_1730
2,lawyer_2.png,a,g,t,2,4,20,1,g,1,0.3343406399,37,m,24,d,60.1277463,SNARC lie 1,2019_May_16_1648
8,lawyer_8.png,a,g,t,2,2,18,6,g,1,0.3343432057,37,m,24,d,60.1277463,SNARC lie 1,2019_May_16_1648
1,lawyer_1.png,g,a,t,0,4,4,0,a,1,0.334345038,37,m,24,d,60.1277463,SNARC lie 1,2019_May_16_1648
8,lawyer_8.png,a,g,t,1,4,12,6,g,1,0.3343494367,37,m,24,d,60.1277463,SNARC lie 1,2019_May_16_1648
8,lawyer_8.png,a,g,t,0,2,2,6,g,1,0.3343597007,8,m,27,d,60.02468695,SNARC lie 2,2019_Apr_10_1125
8,lawyer_8.png,a,g,t,4,6,38,6,g,1,0.3343648324,37,m,24,d,60.1277463,SNARC lie 1,2019_May_16_1648
7,lawyer_7.png,g,a,t,2,1,17,5,g,1,0.3344205496,8,m,27,d,60.02468695,SNARC lie 2,2019_Apr_10_1125
2,lawyer_2.png,a,g,t,0,5,5,1,g,1,0.3502438357,37,m,24,d,60.1277463,SNARC lie 1,2019_May_16_1648
7,lawyer_7.png,g,a,t,1,3,11,5,g,1,0.3504304144,3,f,20,d,60.01201092,SNARC lie 1,2019_Apr_09_1542
7,lawyer_7.png,g,a,t,3,1,25,5,a,1,0.3504509418,32,f,21,d,60.00791881,SNARC lie 2,2019_Apr_30_1358
8,lawyer_8.png,a,g,t,2,5,21,6,g,1,0.350945431,23,f,24,d,60.01161484,SNARC lie 1,2019_Apr_18_1730
8,lawyer_8.png,a,g,t,1,0,8,6,g,1,0.3509479966,36,f,20,d,60.02508316,SNARC lie 2,2019_May_16_1508
3,lawyer_3.png,g,a,t,1,4,12,2,a,1,0.3509483633,18,f,23,d,60.01702786,SNARC lie 2,2019_Apr_18_1207
7,lawyer_7.png,g,a,t,0,1,1,5,a,1,0.350949463,37,m,24,d,60.1277463,SNARC lie 1,2019_May_16_1648
3,lawyer_3.png,g,a,t,0,7,7,2,a,1,0.3509575275,25,m,19,s,60.01491534,SNARC lie 1,2019_Apr_24_1610
4,lawyer_4.png,a,g,t,1,2,10,3,g,1,0.3509597271,37,m,24,d,60.1277463,SNARC lie 1,2019_May_16_1648
2,lawyer_2.png,a,g,t,0,2,2,1,g,1,0.3509659583,18,f,23,d,60.01702786,SNARC lie 2,2019_Apr_18_1207
3,lawyer_3.png,g,a,t,0,3,3,2,g,1,0.3509685243,38,f,21,d,60.00791881,SNARC lie 2,2019_May_16_1737
1,lawyer_1.png,g,a,t,0,1,1,0,g,1,0.350978788,38,f,21,d,60.00791881,SNARC lie 2,2019_May_16_1737
2,lawyer_2.png,a,g,t,2,3,19,1,a,1,0.3509868523,38,f,21,d,60.00791881,SNARC lie 2,2019_May_16_1737
3,lawyer_3.png,g,a,t,3,6,30,2,a,1,0.3509875855,23,f,24,d,60.01161484,SNARC lie 1,2019_Apr_18_1730
8,lawyer_8.png,a,g,t,0,5,5,6,g,1,0.350997116,18,f,23,d,60.01702786,SNARC lie 2,2019_Apr_18_1207
7,lawyer_7.png,g,a,t,1,0,8,5,g,1,0.35100518,15,f,19,d,60.03657565,SNARC lie 1,2019_Apr_17_1720
8,lawyer_8.png,a,g,t,2,2,18,6,g,1,0.3510051803,14,m,21,d,60.00686277,SNARC lie 2,2019_Apr_17_1552
1,lawyer_1.png,g,a,t,4,7,39,0,a,1,0.351008846,35,m,21,d,60.01808426,SNARC lie 1,2019_May_16_1301
7,lawyer_7.png,g,a,t,1,3,11,5,a,1,0.3510099456,18,f,23,d,60.01702786,SNARC lie 2,2019_Apr_18_1207
3,lawyer_3.png,g,a,t,1,3,11,2,a,1,0.3510099456,22,f,22,d,60.02178155,SNARC lie 2,2019_Apr_18_1558
6,lawyer_6.png,a,g,t,2,0,16,4,g,1,0.3510158104,27,f,24,d,60.02257397,SNARC lie 1,2019_Apr_29_1114
6,lawyer_6.png,a,g,t,1,6,14,4,g,1,0.3510253411,18,f,23,d,60.01702786,SNARC lie 2,2019_Apr_18_1207
2,lawyer_2.png,a,g,t,1,0,8,1,g,1,0.3510352381,7,f,24,d,60.00171555,SNARC lie 1,2019_Apr_10_1010
2,lawyer_2.png,a,g,t,0,6,6,1,g,1,0.3510480677,35,m,21,d,60.01808426,SNARC lie 1,2019_May_16_1301
1,lawyer_1.png,g,a,t,2,5,21,0,g,1,0.3510542993,8,m,27,d,60.02468695,SNARC lie 2,2019_Apr_10_1125
1,lawyer_1.png,g,a,t,3,2,26,0,a,1,0.3510550323,21,f,20,d,60.02323421,SNARC lie 1,2019_Apr_18_1508
8,lawyer_8.png,a,g,t,3,2,26,6,a,1,0.3510623637,23,f,24,d,60.01161484,SNARC lie 1,2019_Apr_18_1730
3,lawyer_3.png,g,a,t,3,5,29,2,a,1,0.3510744601,8,m,27,d,60.02468695,SNARC lie 2,2019_Apr_10_1125
4,lawyer_4.png,a,g,t,4,2,34,3,g,1,0.3510814249,23,f,24,d,60.01161484,SNARC lie 1,2019_Apr_18_1730
3,lawyer_3.png,g,a,t,3,4,28,2,g,1,0.3510968201,22,f,22,d,60.02178155,SNARC lie 2,2019_Apr_18_1558
2,lawyer_2.png,a,g,t,0,5,5,1,g,1,0.3511001192,7,f,24,d,60.00171555,SNARC lie 1,2019_Apr_10_1010
4,lawyer_4.png,a,g,t,0,7,7,3,g,1,0.3511206466,37,m,24,d,60.1277463,SNARC lie 1,2019_May_16_1648
1,lawyer_1.png,g,a,t,4,5,37,0,a,1,0.3512287817,17,f,26,d,60.03816113,SNARC lie 1,2019_Apr_18_1109
1,lawyer_1.png,g,a,t,4,5,37,0,g,1,0.3667973084,16,f,27,d,60.02680016,SNARC lie 2,2019_Apr_18_1009
2,lawyer_2.png,a,g,t,3,0,24,1,g,1,0.3675417915,3,f,20,d,60.01201092,SNARC lie 1,2019_Apr_09_1542
4,lawyer_4.png,a,g,t,2,4,20,3,g,1,0.3675681837,36,f,20,d,60.02508316,SNARC lie 2,2019_May_16_1508
9,lawyer_9.png,g,a,t,1,6,14,7,g,1,0.3675788143,27,f,24,d,60.02257397,SNARC lie 1,2019_Apr_29_1114
2,lawyer_2.png,a,g,t,2,6,22,1,g,1,0.3675923768,8,m,27,d,60.02468695,SNARC lie 2,2019_Apr_10_1125
4,lawyer_4.png,a,g,t,2,5,21,3,g,1,0.3676037402,14,m,21,d,60.00686277,SNARC lie 2,2019_Apr_17_1552
6,lawyer_6.png,a,g,t,4,1,33,4,g,1,0.367606306,19,f,19,d,60.02878139,SNARC lie 1,2019_Apr_18_1302
3,lawyer_3.png,g,a,t,1,7,15,2,g,1,0.3676169366,27,f,24,d,60.02257397,SNARC lie 1,2019_Apr_29_1114
4,lawyer_4.png,a,g,t,3,4,28,3,g,1,0.367633065,23,f,24,d,60.01161484,SNARC lie 1,2019_Apr_18_1730
2,lawyer_2.png,a,g,t,1,3,11,1,a,1,0.3676396632,37,m,24,d,60.1277463,SNARC lie 1,2019_May_16_1648
6,lawyer_6.png,a,g,t,4,0,32,4,g,1,0.367647361,34,f,23,s,60.01557549,SNARC lie 2,2019_May_16_1156
3,lawyer_3.png,g,a,t,3,6,30,2,g,1,0.367647361,38,f,21,d,60.00791881,SNARC lie 2,2019_May_16_1737
7,lawyer_7.png,g,a,t,4,3,35,5,a,1,0.3676513929,25,m,19,s,60.01491534,SNARC lie 1,2019_Apr_24_1610
7,lawyer_7.png,g,a,t,4,1,33,5,g,1,0.3676557916,8,m,27,d,60.02468695,SNARC lie 2,2019_Apr_10_1125
1,lawyer_1.png,g,a,t,1,7,15,0,a,1,0.367659457,36,f,20,d,60.02508316,SNARC lie 2,2019_May_16_1508
4,lawyer_4.png,a,g,t,4,2,34,3,g,1,0.3676638557,17,f,26,d,60.03816113,SNARC lie 1,2019_Apr_18_1109
2,lawyer_2.png,a,g,t,3,5,29,1,g,1,0.3676660552,23,f,24,d,60.01161484,SNARC lie 1,2019_Apr_18_1730
1,lawyer_1.png,g,a,t,4,1,33,0,a,1,0.3676697207,15,f,19,d,60.03657565,SNARC lie 1,2019_Apr_17_1720
2,lawyer_2.png,a,g,t,4,3,35,1,g,1,0.3676700871,37,m,24,d,60.1277463,SNARC lie 1,2019_May_16_1648
2,lawyer_2.png,a,g,t,3,7,31,1,g,1,0.3676726533,11,f,21,d,60.03644348,SNARC lie 1,2019_Apr_10_1403
9,lawyer_9.png,g,a,t,0,6,6,7,a,1,0.3676726534,37,m,24,d,60.1277463,SNARC lie 1,2019_May_16_1648
4,lawyer_4.png,a,g,t,2,4,20,3,a,1,0.3676730199,8,m,27,d,60.02468695,SNARC lie 2,2019_Apr_10_1125
4,lawyer_4.png,a,g,t,0,0,0,3,g,1,0.3676752194,22,f,22,d,60.02178155,SNARC lie 2,2019_Apr_18_1558
9,lawyer_9.png,g,a,t,0,3,3,7,a,1,0.3676781517,18,f,23,d,60.01702786,SNARC lie 2,2019_Apr_18_1207
2,lawyer_2.png,a,g,t,1,3,11,1,a,1,0.3676788848,11,f,21,d,60.03644348,SNARC lie 1,2019_Apr_10_1403
4,lawyer_4.png,a,g,t,4,1,33,3,a,1,0.3676906149,22,f,22,d,60.02178155,SNARC lie 2,2019_Apr_18_1558
7,lawyer_7.png,g,a,t,1,4,12,5,g,1,0.3676913478,37,m,24,d,60.1277463,SNARC lie 1,2019_May_16_1648
1,lawyer_1.png,g,a,t,3,1,25,0,a,1,0.3676961132,22,f,22,d,60.02178155,SNARC lie 2,2019_Apr_18_1558
3,lawyer_3.png,g,a,t,2,2,18,2,g,1,0.3676983125,8,m,27,d,60.02468695,SNARC lie 2,2019_Apr_10_1125
9,lawyer_9.png,g,a,t,3,7,31,7,a,1,0.367701978,38,f,21,d,60.00791881,SNARC lie 2,2019_May_16_1737
3,lawyer_3.png,g,a,t,1,0,8,2,a,1,0.367713708,37,m,24,d,60.1277463,SNARC lie 1,2019_May_16_1648
8,lawyer_8.png,a,g,t,1,5,13,6,g,1,0.3677155408,35,m,21,d,60.01808426,SNARC lie 1,2019_May_16_1301
2,lawyer_2.png,a,g,t,4,4,36,1,a,1,0.3677203064,37,m,24,d,60.1277463,SNARC lie 1,2019_May_16_1648
9,lawyer_9.png,g,a,t,0,5,5,7,g,1,0.3677320359,38,f,21,d,60.00791881,SNARC lie 2,2019_May_16_1737
3,lawyer_3.png,g,a,t,2,0,16,2,g,1,0.3677507304,27,f,24,d,60.02257397,SNARC lie 1,2019_Apr_29_1114
7,lawyer_7.png,g,a,t,1,7,15,5,g,1,0.367971766,7,f,24,d,60.00171555,SNARC lie 1,2019_Apr_10_1010
4,lawyer_4.png,a,g,t,3,3,27,3,a,1,0.3829772571,3,f,20,d,60.01201092,SNARC lie 1,2019_Apr_09_1542
8,lawyer_8.png,a,g,t,3,2,26,6,g,1,0.3832316496,32,f,21,d,60.00791881,SNARC lie 2,2019_Apr_30_1358
2,lawyer_2.png,a,g,t,0,3,3,1,a,1,0.3835285632,28,f,21,d,60.03657565,SNARC lie 2,2019_Apr_30_0939
3,lawyer_3.png,g,a,t,0,0,0,2,a,1,0.3836682225,32,f,21,d,60.00791881,SNARC lie 2,2019_Apr_30_1358
2,lawyer_2.png,a,g,t,0,1,1,1,a,1,0.3841935025,6,f,21,d,60.01676381,SNARC lie 2,2019_Apr_10_0911
4,lawyer_4.png,a,g,t,1,1,9,3,g,1,0.3842261262,3,f,20,d,60.01201092,SNARC lie 1,2019_Apr_09_1542
6,lawyer_6.png,a,g,t,0,4,4,4,a,1,0.3842261263,1,f,27,d,59.90355943,SNARC lie 1,2019_Apr_01_1630
3,lawyer_3.png,g,a,t,1,4,12,2,a,1,0.3842411552,9,m,27,d,60.0087107,SNARC lie 1,2019_Apr_10_1212
1,lawyer_1.png,g,a,t,2,0,16,0,a,1,0.3842477533,18,f,23,d,60.01702786,SNARC lie 2,2019_Apr_18_1207
6,lawyer_6.png,a,g,t,3,1,25,4,a,1,0.3842558176,22,f,22,d,60.02178155,SNARC lie 2,2019_Apr_18_1558
2,lawyer_2.png,a,g,t,1,1,9,1,a,1,0.3842660813,17,f,26,d,60.03816113,SNARC lie 1,2019_Apr_18_1109
4,lawyer_4.png,a,g,t,4,5,37,3,a,1,0.3842719463,14,m,21,d,60.00686277,SNARC lie 2,2019_Apr_17_1552
7,lawyer_7.png,g,a,t,3,5,29,5,a,1,0.384272313,18,f,23,d,60.01702786,SNARC lie 2,2019_Apr_18_1207
6,lawyer_6.png,a,g,t,1,1,9,4,g,1,0.3842734126,27,f,24,d,60.02257397,SNARC lie 1,2019_Apr_29_1114
6,lawyer_6.png,a,g,t,3,0,24,4,a,1,0.3842840428,34,f,23,s,60.01557549,SNARC lie 2,2019_May_16_1156
3,lawyer_3.png,g,a,t,4,4,36,2,a,1,0.3842869753,8,m,27,d,60.02468695,SNARC lie 2,2019_Apr_10_1125
9,lawyer_9.png,g,a,t,2,2,18,7,a,1,0.3842943064,6,f,21,d,60.01676381,SNARC lie 2,2019_Apr_10_0911
3,lawyer_3.png,g,a,t,2,0,16,2,g,1,0.3842957728,36,f,20,d,60.02508316,SNARC lie 2,2019_May_16_1508
1,lawyer_1.png,g,a,t,2,4,20,0,a,1,0.3843042036,24,f,21,m,59.99393041,SNARC lie 2,2019_Apr_24_0942
6,lawyer_6.png,a,g,t,1,1,9,4,g,1,0.384305303,33,f,20,d,60.02283803,SNARC lie 1,2019_Apr_30_1445
4,lawyer_4.png,a,g,t,1,5,13,3,g,1,0.3843053032,9,m,27,d,60.0087107,SNARC lie 1,2019_Apr_10_1212
4,lawyer_4.png,a,g,t,3,6,30,3,g,1,0.3843089689,7,f,24,d,60.00171555,SNARC lie 1,2019_Apr_10_1010
6,lawyer_6.png,a,g,t,3,4,28,4,a,1,0.3843126344,18,f,23,d,60.01702786,SNARC lie 2,2019_Apr_18_1207
1,lawyer_1.png,g,a,t,0,2,2,0,g,1,0.3843152002,27,f,24,d,60.02257397,SNARC lie 1,2019_Apr_29_1114
3,lawyer_3.png,g,a,t,0,6,6,2,g,1,0.3843177662,25,m,19,s,60.01491534,SNARC lie 1,2019_Apr_24_1610
4,lawyer_4.png,a,g,t,4,1,33,3,g,1,0.3843181329,25,m,19,s,60.01491534,SNARC lie 1,2019_Apr_24_1610
6,lawyer_6.png,a,g,t,3,3,27,4,g,1,0.3843203322,23,f,24,d,60.01161484,SNARC lie 1,2019_Apr_18_1730
7,lawyer_7.png,g,a,t,1,3,11,5,g,1,0.3843225318,22,f,22,d,60.02178155,SNARC lie 2,2019_Apr_18_1558
2,lawyer_2.png,a,g,t,4,5,37,1,g,1,0.3843236312,23,f,24,d,60.01161484,SNARC lie 1,2019_Apr_18_1730
2,lawyer_2.png,a,g,t,3,0,24,1,a,1,0.3843243641,25,m,19,s,60.01491534,SNARC lie 1,2019_Apr_24_1610
1,lawyer_1.png,g,a,t,2,6,22,0,g,1,0.3843269303,11,f,21,d,60.03644348,SNARC lie 1,2019_Apr_10_1403
6,lawyer_6.png,a,g,t,2,7,23,4,a,1,0.3843276633,23,f,24,d,60.01161484,SNARC lie 1,2019_Apr_18_1730
1,lawyer_1.png,g,a,t,4,7,39,0,a,1,0.3843276633,23,f,24,d,60.01161484,SNARC lie 1,2019_Apr_18_1730
3,lawyer_3.png,g,a,t,0,5,5,2,g,1,0.3843287635,32,f,21,d,60.00791881,SNARC lie 2,2019_Apr_30_1358
7,lawyer_7.png,g,a,t,2,2,18,5,a,1,0.3843291295,18,f,23,d,60.01702786,SNARC lie 2,2019_Apr_18_1207
2,lawyer_2.png,a,g,t,4,0,32,1,g,1,0.3843294962,17,f,26,d,60.03816113,SNARC lie 1,2019_Apr_18_1109
4,lawyer_4.png,a,g,t,1,6,14,3,g,1,0.3843294962,23,f,24,d,60.01161484,SNARC lie 1,2019_Apr_18_1730
8,lawyer_8.png,a,g,t,0,4,4,6,g,1,0.3843298629,31,m,21,d,60.02297006,SNARC lie 1,2019_Apr_30_1303
6,lawyer_6.png,a,g,t,2,0,16,4,g,1,0.3843305958,14,m,21,d,60.00686277,SNARC lie 2,2019_Apr_17_1552
4,lawyer_4.png,a,g,t,4,0,32,3,a,1,0.384330596,8,m,27,d,60.02468695,SNARC lie 2,2019_Apr_10_1125
9,lawyer_9.png,g,a,t,4,4,36,7,a,1,0.3843327952,37,m,24,d,60.1277463,SNARC lie 1,2019_May_16_1648
7,lawyer_7.png,g,a,t,3,7,31,5,a,1,0.3843353612,23,f,24,d,60.01161484,SNARC lie 1,2019_Apr_18_1730
1,lawyer_1.png,g,a,t,1,1,9,0,a,1,0.384337194,23,f,24,d,60.01161484,SNARC lie 1,2019_Apr_18_1730
3,lawyer_3.png,g,a,t,3,2,26,2,g,1,0.3843415927,18,f,23,d,60.01702786,SNARC lie 2,2019_Apr_18_1207
6,lawyer_6.png,a,g,t,1,4,12,4,g,1,0.3843467245,7,f,24,d,60.00171555,SNARC lie 1,2019_Apr_10_1010
2,lawyer_2.png,a,g,t,1,0,8,1,g,1,0.3843558885,23,f,24,d,60.01161484,SNARC lie 1,2019_Apr_18_1730
4,lawyer_4.png,a,g,t,2,5,21,3,g,1,0.3843591876,8,m,27,d,60.02468695,SNARC lie 2,2019_Apr_10_1125
7,lawyer_7.png,g,a,t,0,0,0,5,g,1,0.3843599209,38,f,21,d,60.00791881,SNARC lie 2,2019_May_16_1737
3,lawyer_3.png,g,a,t,2,4,20,2,a,1,0.3843621199,14,m,21,d,60.00686277,SNARC lie 2,2019_Apr_17_1552
2,lawyer_2.png,a,g,t,4,0,32,1,g,1,0.3843643194,11,f,21,d,60.03644348,SNARC lie 1,2019_Apr_10_1403
6,lawyer_6.png,a,g,t,4,1,33,4,g,1,0.3843690846,17,f,26,d,60.03816113,SNARC lie 1,2019_Apr_18_1109
7,lawyer_7.png,g,a,t,1,6,14,5,a,1,0.3843738502,37,m,24,d,60.1277463,SNARC lie 1,2019_May_16_1648
3,lawyer_3.png,g,a,t,0,2,2,2,a,1,0.3843789818,37,m,24,d,60.1277463,SNARC lie 1,2019_May_16_1648
6,lawyer_6.png,a,g,t,0,6,6,4,g,1,0.3843855797,23,f,24,d,60.01161484,SNARC lie 1,2019_Apr_18_1730
7,lawyer_7.png,g,a,t,1,5,13,5,a,1,0.3843863129,17,f,26,d,60.03816113,SNARC lie 1,2019_Apr_18_1109
7,lawyer_7.png,g,a,t,4,4,36,5,g,1,0.3843892454,22,f,22,d,60.02178155,SNARC lie 2,2019_Apr_18_1558
8,lawyer_8.png,a,g,t,0,1,1,6,a,1,0.3843910783,7,f,24,d,60.00171555,SNARC lie 1,2019_Apr_10_1010
1,lawyer_1.png,g,a,t,2,4,20,0,a,1,0.3843932776,23,f,24,d,60.01161484,SNARC lie 1,2019_Apr_18_1730
6,lawyer_6.png,a,g,t,4,2,34,4,g,1,0.3843932776,37,m,24,d,60.1277463,SNARC lie 1,2019_May_16_1648
4,lawyer_4.png,a,g,t,0,7,7,3,a,1,0.3843951104,23,f,24,d,60.01161484,SNARC lie 1,2019_Apr_18_1730
8,lawyer_8.png,a,g,t,0,4,4,6,a,1,0.3843991426,25,m,19,s,60.01491534,SNARC lie 1,2019_Apr_24_1610
3,lawyer_3.png,g,a,t,4,3,35,2,a,1,0.3844009752,17,f,26,d,60.03816113,SNARC lie 1,2019_Apr_18_1109
8,lawyer_8.png,a,g,t,2,3,19,6,g,1,0.384422969,7,f,24,d,60.00171555,SNARC lie 1,2019_Apr_10_1010
1,lawyer_1.png,g,a,t,1,6,14,0,a,1,0.3844259015,8,m,27,d,60.02468695,SNARC lie 2,2019_Apr_10_1125
7,lawyer_7.png,g,a,t,4,5,37,5,g,1,0.3844401971,31,m,21,d,60.02297006,SNARC lie 1,2019_Apr_30_1303
8,lawyer_8.png,a,g,t,0,6,6,6,a,1,0.384466223,22,f,22,d,60.02178155,SNARC lie 2,2019_Apr_18_1558
2,lawyer_2.png,a,g,t,3,3,27,1,g,1,0.3844724544,37,m,24,d,60.1277463,SNARC lie 1,2019_May_16_1648
7,lawyer_7.png,g,a,t,3,4,28,5,g,1,0.3844940816,38,f,21,d,60.00791881,SNARC lie 2,2019_May_16_1737
7,lawyer_7.png,g,a,t,1,3,11,5,a,1,0.3845116764,8,m,27,d,60.02468695,SNARC lie 2,2019_Apr_10_1125
7,lawyer_7.png,g,a,t,3,4,28,5,g,1,0.3845926861,8,m,27,d,60.02468695,SNARC lie 2,2019_Apr_10_1125
8,lawyer_8.png,a,g,t,0,7,7,6,g,1,0.3847191492,23,f,24,d,60.01161484,SNARC lie 1,2019_Apr_18_1730
3,lawyer_3.png,g,a,t,3,4,28,2,a,1,0.4000655408,32,f,21,d,60.00791881,SNARC lie 2,2019_Apr_30_1358
8,lawyer_8.png,a,g,t,4,6,38,6,a,1,0.4002433224,38,f,21,d,60.00791881,SNARC lie 2,2019_May_16_1737
3,lawyer_3.png,g,a,t,3,5,29,2,g,1,0.4002466213,25,m,19,s,60.01491534,SNARC lie 1,2019_Apr_24_1610
3,lawyer_3.png,g,a,t,1,0,8,2,a,1,0.400253586,35,m,21,d,60.01808426,SNARC lie 1,2019_May_16_1301
3,lawyer_3.png,g,a,t,0,4,4,2,a,1,0.4002539527,18,f,23,d,60.01702786,SNARC lie 2,2019_Apr_18_1207
3,lawyer_3.png,g,a,t,3,1,25,2,g,1,0.4002634832,7,f,24,d,60.00171555,SNARC lie 1,2019_Apr_10_1010
2,lawyer_2.png,a,g,t,2,6,22,1,a,1,0.4002726473,8,m,27,d,60.02468695,SNARC lie 2,2019_Apr_10_1125
3,lawyer_3.png,g,a,t,3,1,25,2,g,1,0.4002891423,8,m,27,d,60.02468695,SNARC lie 2,2019_Apr_10_1125
4,lawyer_4.png,a,g,t,3,7,31,3,g,1,0.4002953735,32,f,21,d,60.00791881,SNARC lie 2,2019_Apr_30_1358
7,lawyer_7.png,g,a,t,2,0,16,5,a,1,0.4003177341,29,m,20,d,60.00580693,SNARC lie 1,2019_Apr_30_1119
7,lawyer_7.png,g,a,t,1,5,13,5,a,1,0.4006439722,5,f,22,d,60.06486318,SNARC lie 1,2019_Apr_09_1752
8,lawyer_8.png,a,g,t,4,4,36,6,a,1,0.4006535028,5,f,22,d,60.06486318,SNARC lie 1,2019_Apr_09_1752
6,lawyer_6.png,a,g,t,4,0,32,4,g,1,0.4007777666,3,f,20,d,60.01201092,SNARC lie 1,2019_Apr_09_1542
2,lawyer_2.png,a,g,t,0,4,4,1,a,1,0.400866474,7,f,24,d,60.00171555,SNARC lie 1,2019_Apr_10_1010
6,lawyer_6.png,a,g,t,2,4,20,4,g,1,0.400908995,18,f,23,d,60.01702786,SNARC lie 2,2019_Apr_18_1207
7,lawyer_7.png,g,a,t,1,4,12,5,a,1,0.4009155929,27,f,24,d,60.02257397,SNARC lie 1,2019_Apr_29_1114
4,lawyer_4.png,a,g,t,1,4,12,3,g,1,0.4009203583,17,f,26,d,60.03816113,SNARC lie 1,2019_Apr_18_1109
6,lawyer_6.png,a,g,t,1,0,8,4,g,1,0.4009328213,8,m,27,d,60.02468695,SNARC lie 2,2019_Apr_10_1125
4,lawyer_4.png,a,g,t,0,5,5,3,a,1,0.4009331879,25,m,19,s,60.01491534,SNARC lie 1,2019_Apr_24_1610
3,lawyer_3.png,g,a,t,2,5,21,2,a,1,0.4009372201,37,m,24,d,60.1277463,SNARC lie 1,2019_May_16_1648
7,lawyer_7.png,g,a,t,0,2,2,5,a,1,0.4009427181,35,m,21,d,60.01808426,SNARC lie 1,2019_May_16_1301
8,lawyer_8.png,a,g,t,3,4,28,6,g,1,0.4009427181,31,m,21,d,60.02297006,SNARC lie 1,2019_Apr_30_1303
8,lawyer_8.png,a,g,t,3,5,29,6,a,1,0.4009467503,35,m,21,d,60.01808426,SNARC lie 1,2019_May_16_1301
4,lawyer_4.png,a,g,t,1,1,9,3,g,1,0.4009493164,7,f,24,d,60.00171555,SNARC lie 1,2019_Apr_10_1010
6,lawyer_6.png,a,g,t,1,1,9,4,g,1,0.4009515159,29,m,20,d,60.00580693,SNARC lie 1,2019_Apr_30_1119
3,lawyer_3.png,g,a,t,2,7,23,2,a,1,0.400956281,35,m,21,d,60.01808426,SNARC lie 1,2019_May_16_1301
4,lawyer_4.png,a,g,t,1,7,15,3,a,1,0.4009566477,22,f,22,d,60.02178155,SNARC lie 2,2019_Apr_18_1558
9,lawyer_9.png,g,a,t,3,1,25,7,a,1,0.4009573809,36,f,20,d,60.02508316,SNARC lie 2,2019_May_16_1508
7,lawyer_7.png,g,a,t,2,2,18,5,a,1,0.4009577474,36,f,20,d,60.02508316,SNARC lie 2,2019_May_16_1508
3,lawyer_3.png,g,a,t,2,2,18,2,a,1,0.4009584805,23,f,24,d,60.01161484,SNARC lie 1,2019_Apr_18_1730
6,lawyer_6.png,a,g,t,4,4,36,4,g,1,0.4009584805,25,m,19,s,60.01491534,SNARC lie 1,2019_Apr_24_1610
3,lawyer_3.png,g,a,t,0,2,2,2,a,1,0.4009625125,30,m,26,d,60.02297006,SNARC lie 2,2019_Apr_30_1211
2,lawyer_2.png,a,g,t,1,6,14,1,a,1,0.4009636123,6,f,21,d,60.01676381,SNARC lie 2,2019_Apr_10_0911
6,lawyer_6.png,a,g,t,2,7,23,4,a,1,0.4009636124,18,f,23,d,60.01702786,SNARC lie 2,2019_Apr_18_1207
8,lawyer_8.png,a,g,t,3,2,26,6,g,1,0.4009654452,8,m,27,d,60.02468695,SNARC lie 2,2019_Apr_10_1125
4,lawyer_4.png,a,g,t,3,4,28,3,g,1,0.4009661782,37,m,24,d,60.1277463,SNARC lie 1,2019_May_16_1648
1,lawyer_1.png,g,a,t,2,0,16,0,g,1,0.4009683777,22,f,22,d,60.02178155,SNARC lie 2,2019_Apr_18_1558
4,lawyer_4.png,a,g,t,2,0,16,3,a,1,0.4009705768,37,m,24,d,60.1277463,SNARC lie 1,2019_May_16_1648
4,lawyer_4.png,a,g,t,4,4,36,3,g,1,0.4009716766,7,f,24,d,60.00171555,SNARC lie 1,2019_Apr_10_1010
3,lawyer_3.png,g,a,t,0,1,1,2,g,1,0.4009727763,22,f,22,d,60.02178155,SNARC lie 2,2019_Apr_18_1558
7,lawyer_7.png,g,a,t,4,7,39,5,a,1,0.4009735091,36,f,20,d,60.02508316,SNARC lie 2,2019_May_16_1508
1,lawyer_1.png,g,a,t,0,1,1,0,a,1,0.4009760754,9,m,27,d,60.0087107,SNARC lie 1,2019_Apr_10_1212
9,lawyer_9.png,g,a,t,2,7,23,7,a,1,0.4009775417,14,m,21,d,60.00686277,SNARC lie 2,2019_Apr_17_1552
6,lawyer_6.png,a,g,t,1,2,10,4,a,1,0.4009779082,15,f,19,d,60.03657565,SNARC lie 1,2019_Apr_17_1720
1,lawyer_1.png,g,a,t,2,5,21,0,a,1,0.4009830402,35,m,21,d,60.01808426,SNARC lie 1,2019_May_16_1301
3,lawyer_3.png,g,a,t,1,2,10,2,g,1,0.4009837732,38,f,21,d,60.00791881,SNARC lie 2,2019_May_16_1737
6,lawyer_6.png,a,g,t,1,6,14,4,g,1,0.4009841396,30,m,26,d,60.02297006,SNARC lie 2,2019_Apr_30_1211
2,lawyer_2.png,a,g,t,4,1,33,1,g,1,0.4009889052,36,f,20,d,60.02508316,SNARC lie 2,2019_May_16_1508
7,lawyer_7.png,g,a,t,1,2,10,5,a,1,0.4009911043,7,f,24,d,60.00171555,SNARC lie 1,2019_Apr_10_1010
4,lawyer_4.png,a,g,t,0,5,5,3,g,1,0.4009911043,15,f,19,d,60.03657565,SNARC lie 1,2019_Apr_17_1720
6,lawyer_6.png,a,g,t,2,6,22,4,g,1,0.4009911045,36,f,20,d,60.02508316,SNARC lie 2,2019_May_16_1508
2,lawyer_2.png,a,g,t,1,1,9,1,g,1,0.4009929374,31,m,21,d,60.02297006,SNARC lie 1,2019_Apr_30_1303
8,lawyer_8.png,a,g,t,4,2,34,6,g,1,0.4009944033,25,m,19,s,60.01491534,SNARC lie 1,2019_Apr_24_1610
7,lawyer_7.png,g,a,t,3,1,25,5,g,1,0.4009966026,32,f,21,d,60.00791881,SNARC lie 2,2019_Apr_30_1358
7,lawyer_7.png,g,a,t,3,0,24,5,a,1,0.4010013682,14,m,21,d,60.00686277,SNARC lie 2,2019_Apr_17_1552
1,lawyer_1.png,g,a,t,3,7,31,0,g,1,0.4010017345,7,f,24,d,60.00171555,SNARC lie 1,2019_Apr_10_1010
8,lawyer_8.png,a,g,t,3,3,27,6,a,1,0.4010028342,8,m,27,d,60.02468695,SNARC lie 2,2019_Apr_10_1125
2,lawyer_2.png,a,g,t,3,1,25,1,a,1,0.4010046669,37,m,24,d,60.1277463,SNARC lie 1,2019_May_16_1648
7,lawyer_7.png,g,a,t,2,3,19,5,a,1,0.4010046672,23,f,24,d,60.01161484,SNARC lie 1,2019_Apr_18_1730
1,lawyer_1.png,g,a,t,1,0,8,0,g,1,0.4010054001,18,f,23,d,60.01702786,SNARC lie 2,2019_Apr_18_1207
8,lawyer_8.png,a,g,t,0,3,3,6,g,1,0.4010061333,37,m,24,d,60.1277463,SNARC lie 1,2019_May_16_1648
8,lawyer_8.png,a,g,t,4,6,38,6,g,1,0.4010065,23,f,24,d,60.01161484,SNARC lie 1,2019_Apr_18_1730
1,lawyer_1.png,g,a,t,0,1,1,0,a,1,0.4010068665,14,m,21,d,60.00686277,SNARC lie 2,2019_Apr_17_1552
8,lawyer_8.png,a,g,t,1,0,8,6,g,1,0.4010075997,29,m,20,d,60.00580693,SNARC lie 1,2019_Apr_30_1119
4,lawyer_4.png,a,g,t,4,5,37,3,g,1,0.4010079661,36,f,20,d,60.02508316,SNARC lie 2,2019_May_16_1508
9,lawyer_9.png,g,a,t,1,3,11,7,g,1,0.401009799,15,f,19,d,60.03657565,SNARC lie 1,2019_Apr_17_1720
3,lawyer_3.png,g,a,t,2,1,17,2,a,1,0.4010134644,25,m,19,s,60.01491534,SNARC lie 1,2019_Apr_24_1610
9,lawyer_9.png,g,a,t,4,0,32,7,g,1,0.4010134647,37,m,24,d,60.1277463,SNARC lie 1,2019_May_16_1648
8,lawyer_8.png,a,g,t,0,1,1,6,g,1,0.4010149307,7,f,24,d,60.00171555,SNARC lie 1,2019_Apr_10_1010
8,lawyer_8.png,a,g,t,1,1,9,6,g,1,0.4010149307,9,m,27,d,60.0087107,SNARC lie 1,2019_Apr_10_1212
9,lawyer_9.png,g,a,t,1,4,12,7,g,1,0.4010149308,22,f,22,d,60.02178155,SNARC lie 2,2019_Apr_18_1558
7,lawyer_7.png,g,a,t,3,7,31,5,a,1,0.4010152973,17,f,26,d,60.03816113,SNARC lie 1,2019_Apr_18_1109
7,lawyer_7.png,g,a,t,4,5,37,5,a,1,0.4010163969,7,f,24,d,60.00171555,SNARC lie 1,2019_Apr_10_1010
7,lawyer_7.png,g,a,t,2,1,17,5,g,1,0.4010240948,37,m,24,d,60.1277463,SNARC lie 1,2019_May_16_1648
6,lawyer_6.png,a,g,t,4,4,36,4,a,1,0.4010255607,34,f,23,s,60.01557549,SNARC lie 2,2019_May_16_1156
2,lawyer_2.png,a,g,t,1,4,12,1,a,1,0.4010259275,8,m,27,d,60.02468695,SNARC lie 2,2019_Apr_10_1125
2,lawyer_2.png,a,g,t,3,1,25,1,a,1,0.4010270273,23,f,24,d,60.01161484,SNARC lie 1,2019_Apr_18_1730
4,lawyer_4.png,a,g,t,3,3,27,3,a,1,0.4010299598,37,m,24,d,60.1277463,SNARC lie 1,2019_May_16_1648
4,lawyer_4.png,a,g,t,1,1,9,3,a,1,0.4010328923,15,f,19,d,60.03657565,SNARC lie 1,2019_Apr_17_1720
7,lawyer_7.png,g,a,t,3,2,26,5,g,1,0.4010354581,26,f,24,d,60.01636775,SNARC lie 2,2019_Apr_24_1700
4,lawyer_4.png,a,g,t,3,6,30,3,a,1,0.4010413231,7,f,24,d,60.00171555,SNARC lie 1,2019_Apr_10_1010
2,lawyer_2.png,a,g,t,3,3,27,1,g,1,0.401045722,36,f,20,d,60.02508316,SNARC lie 2,2019_May_16_1508
8,lawyer_8.png,a,g,t,4,7,39,6,g,1,0.4010625833,20,f,25,d,60.00527894,SNARC lie 2,2019_Apr_18_1410
4,lawyer_4.png,a,g,t,4,1,33,3,g,1,0.4010952073,37,m,24,d,60.1277463,SNARC lie 1,2019_May_16_1648
3,lawyer_3.png,g,a,t,3,0,24,2,a,1,0.4012630917,25,m,19,s,60.01491534,SNARC lie 1,2019_Apr_24_1610
9,lawyer_9.png,g,a,t,0,6,6,7,g,1,0.4016252528,34,f,23,s,60.01557549,SNARC lie 2,2019_May_16_1156
4,lawyer_4.png,a,g,t,1,2,10,3,g,1,0.416583458,32,f,21,d,60.00791881,SNARC lie 2,2019_Apr_30_1358
2,lawyer_2.png,a,g,t,2,0,16,1,a,1,0.4166322101,3,f,20,d,60.01201092,SNARC lie 1,2019_Apr_09_1542
3,lawyer_3.png,g,a,t,0,2,2,2,g,1,0.4167542744,18,f,23,d,60.01702786,SNARC lie 2,2019_Apr_18_1207
8,lawyer_8.png,a,g,t,1,1,9,6,g,1,0.4168946669,30,m,26,d,60.02297006,SNARC lie 2,2019_Apr_30_1211
4,lawyer_4.png,a,g,t,4,0,32,3,g,1,0.4169173935,15,f,19,d,60.03657565,SNARC lie 1,2019_Apr_17_1720
7,lawyer_7.png,g,a,t,0,6,6,5,g,1,0.4169203257,32,f,21,d,60.00791881,SNARC lie 2,2019_Apr_30_1358
8,lawyer_8.png,a,g,t,1,3,11,6,g,1,0.4169206927,25,m,19,s,60.01491534,SNARC lie 1,2019_Apr_24_1610
4,lawyer_4.png,a,g,t,4,0,32,3,g,1,0.4169302233,32,f,21,d,60.00791881,SNARC lie 2,2019_Apr_30_1358
7,lawyer_7.png,g,a,t,1,4,12,5,a,1,0.4169305894,28,f,21,d,60.03657565,SNARC lie 2,2019_Apr_30_0939
1,lawyer_1.png,g,a,t,4,7,39,0,a,1,0.4169445192,32,f,21,d,60.00791881,SNARC lie 2,2019_Apr_30_1358
3,lawyer_3.png,g,a,t,4,6,38,2,a,1,0.4169452521,32,f,21,d,60.00791881,SNARC lie 2,2019_Apr_30_1358
4,lawyer_4.png,a,g,t,4,0,32,3,a,1,0.4169456186,27,f,24,d,60.02257397,SNARC lie 1,2019_Apr_29_1114
9,lawyer_9.png,g,a,t,0,7,7,7,g,1,0.4171182683,3,f,20,d,60.01201092,SNARC lie 1,2019_Apr_09_1542
6,lawyer_6.png,a,g,t,0,3,3,4,g,1,0.4173253746,1,f,27,d,59.90355943,SNARC lie 1,2019_Apr_01_1630
7,lawyer_7.png,g,a,t,0,3,3,5,a,1,0.4173503006,3,f,20,d,60.01201092,SNARC lie 1,2019_Apr_09_1542
2,lawyer_2.png,a,g,t,1,3,11,1,a,1,0.4173693619,5,f,22,d,60.06486318,SNARC lie 1,2019_Apr_09_1752
6,lawyer_6.png,a,g,t,3,1,25,4,g,1,0.4175101207,3,f,20,d,60.01201092,SNARC lie 1,2019_Apr_09_1542
9,lawyer_9.png,g,a,t,4,1,33,7,g,1,0.4175229503,5,f,22,d,60.06486318,SNARC lie 1,2019_Apr_09_1752
2,lawyer_2.png,a,g,t,3,0,24,1,a,1,0.4175401786,8,m,27,d,60.02468695,SNARC lie 2,2019_Apr_10_1125
1,lawyer_1.png,g,a,t,0,3,3,0,g,1,0.4175434776,21,f,20,d,60.02323421,SNARC lie 1,2019_Apr_18_1508
2,lawyer_2.png,a,g,t,3,6,30,1,a,1,0.417545677,5,f,22,d,60.06486318,SNARC lie 1,2019_Apr_09_1752
8,lawyer_8.png,a,g,t,0,7,7,6,a,1,0.4175614393,36,f,20,d,60.02508316,SNARC lie 2,2019_May_16_1508
4,lawyer_4.png,a,g,t,0,1,1,3,g,1,0.4175724359,18,f,23,d,60.01702786,SNARC lie 2,2019_Apr_18_1207
1,lawyer_1.png,g,a,t,2,4,20,0,g,1,0.4176024939,35,m,21,d,60.01808426,SNARC lie 1,2019_May_16_1301
8,lawyer_8.png,a,g,t,1,0,8,6,a,1,0.4176068925,35,m,21,d,60.01808426,SNARC lie 1,2019_May_16_1301
7,lawyer_7.png,g,a,t,2,2,18,5,g,1,0.4176076255,23,f,24,d,60.01161484,SNARC lie 1,2019_Apr_18_1730
2,lawyer_2.png,a,g,t,0,5,5,1,g,1,0.4176079922,14,m,21,d,60.00686277,SNARC lie 2,2019_Apr_17_1552
8,lawyer_8.png,a,g,t,3,7,31,6,a,1,0.4176083589,37,m,24,d,60.1277463,SNARC lie 1,2019_May_16_1648
8,lawyer_8.png,a,g,t,2,5,21,6,a,1,0.4176094583,25,m,19,s,60.01491534,SNARC lie 1,2019_Apr_24_1610
3,lawyer_3.png,g,a,t,1,4,12,2,g,1,0.4176123908,25,m,19,s,60.01491534,SNARC lie 1,2019_Apr_24_1610
3,lawyer_3.png,g,a,t,3,0,24,2,g,1,0.4176160563,32,f,21,d,60.00791881,SNARC lie 2,2019_Apr_30_1358
8,lawyer_8.png,a,g,t,3,6,30,6,g,1,0.4176160567,35,m,21,d,60.01808426,SNARC lie 1,2019_May_16_1301
8,lawyer_8.png,a,g,t,4,1,33,6,a,1,0.4176175226,7,f,24,d,60.00171555,SNARC lie 1,2019_Apr_10_1010
9,lawyer_9.png,g,a,t,1,3,11,7,a,1,0.4176193555,37,m,24,d,60.1277463,SNARC lie 1,2019_May_16_1648
8,lawyer_8.png,a,g,t,3,6,30,6,g,1,0.4176200884,36,f,20,d,60.02508316,SNARC lie 2,2019_May_16_1508
1,lawyer_1.png,g,a,t,2,0,16,0,a,1,0.4176230212,9,m,27,d,60.0087107,SNARC lie 1,2019_Apr_10_1212
6,lawyer_6.png,a,g,t,1,0,8,4,g,1,0.417625587,21,f,20,d,60.02323421,SNARC lie 1,2019_Apr_18_1508
9,lawyer_9.png,g,a,t,3,1,25,7,a,1,0.4176288859,14,m,21,d,60.00686277,SNARC lie 2,2019_Apr_17_1552
4,lawyer_4.png,a,g,t,0,2,2,3,a,1,0.4176303521,35,m,21,d,60.01808426,SNARC lie 1,2019_May_16_1301
7,lawyer_7.png,g,a,t,0,4,4,5,g,1,0.4176303525,34,f,23,s,60.01557549,SNARC lie 2,2019_May_16_1156
4,lawyer_4.png,a,g,t,4,3,35,3,a,1,0.417631452,38,f,21,d,60.00791881,SNARC lie 2,2019_May_16_1737
1,lawyer_1.png,g,a,t,1,7,15,0,g,1,0.4176318189,38,f,21,d,60.00791881,SNARC lie 2,2019_May_16_1737
8,lawyer_8.png,a,g,t,2,1,17,6,g,1,0.4176329183,36,f,20,d,60.02508316,SNARC lie 2,2019_May_16_1508
3,lawyer_3.png,g,a,t,3,3,27,2,a,1,0.4176347511,11,f,21,d,60.03644348,SNARC lie 1,2019_Apr_10_1403
2,lawyer_2.png,a,g,t,4,6,38,1,g,1,0.4176354841,25,m,19,s,60.01491534,SNARC lie 1,2019_Apr_24_1610
6,lawyer_6.png,a,g,t,0,0,0,4,a,1,0.4176380499,25,m,19,s,60.01491534,SNARC lie 1,2019_Apr_24_1610
8,lawyer_8.png,a,g,t,0,1,1,6,g,1,0.4176380499,22,f,22,d,60.02178155,SNARC lie 2,2019_Apr_18_1558
4,lawyer_4.png,a,g,t,1,7,15,3,a,1,0.4176402495,25,m,19,s,60.01491534,SNARC lie 1,2019_Apr_24_1610
3,lawyer_3.png,g,a,t,2,2,18,2,g,1,0.4176402495,18,f,23,d,60.01702786,SNARC lie 2,2019_Apr_18_1207
1,lawyer_1.png,g,a,t,3,6,30,0,g,1,0.417640616,8,m,27,d,60.02468695,SNARC lie 2,2019_Apr_10_1125
8,lawyer_8.png,a,g,t,2,1,17,6,a,1,0.4176413491,27,f,24,d,60.02257397,SNARC lie 1,2019_Apr_29_1114
8,lawyer_8.png,a,g,t,2,0,16,6,a,1,0.4176428155,38,f,21,d,60.00791881,SNARC lie 2,2019_May_16_1737
6,lawyer_6.png,a,g,t,4,3,35,4,g,1,0.4176435485,7,f,24,d,60.00171555,SNARC lie 1,2019_Apr_10_1010
4,lawyer_4.png,a,g,t,1,6,14,3,a,1,0.4176453813,35,m,21,d,60.01808426,SNARC lie 1,2019_May_16_1301
8,lawyer_8.png,a,g,t,0,0,0,6,g,1,0.4176457478,30,m,26,d,60.02297006,SNARC lie 2,2019_Apr_30_1211
7,lawyer_7.png,g,a,t,0,7,7,5,g,1,0.4176475806,27,f,24,d,60.02257397,SNARC lie 1,2019_Apr_29_1114
9,lawyer_9.png,g,a,t,4,5,37,7,g,1,0.417648314,32,f,21,d,60.00791881,SNARC lie 2,2019_Apr_30_1358
2,lawyer_2.png,a,g,t,3,7,31,1,a,1,0.4176501464,31,m,21,d,60.02297006,SNARC lie 1,2019_Apr_30_1303
8,lawyer_8.png,a,g,t,0,2,2,6,g,1,0.4176505131,25,m,19,s,60.01491534,SNARC lie 1,2019_Apr_24_1610
2,lawyer_2.png,a,g,t,2,0,16,1,g,1,0.4176508796,15,f,19,d,60.03657565,SNARC lie 1,2019_Apr_17_1720
9,lawyer_9.png,g,a,t,3,6,30,7,g,1,0.4176508798,32,f,21,d,60.00791881,SNARC lie 2,2019_Apr_30_1358
1,lawyer_1.png,g,a,t,1,6,14,0,g,1,0.4176512463,22,f,22,d,60.02178155,SNARC lie 2,2019_Apr_18_1558
3,lawyer_3.png,g,a,t,2,1,17,2,g,1,0.4176523457,38,f,21,d,60.00791881,SNARC lie 2,2019_May_16_1737
6,lawyer_6.png,a,g,t,0,6,6,4,a,1,0.4176541786,38,f,21,d,60.00791881,SNARC lie 2,2019_May_16_1737
3,lawyer_3.png,g,a,t,3,3,27,2,g,1,0.4176545453,21,f,20,d,60.02323421,SNARC lie 1,2019_Apr_18_1508
2,lawyer_2.png,a,g,t,1,4,12,1,a,1,0.4176560114,14,m,21,d,60.00686277,SNARC lie 2,2019_Apr_17_1552
9,lawyer_9.png,g,a,t,1,7,15,7,a,1,0.4176574778,29,m,20,d,60.00580693,SNARC lie 1,2019_Apr_30_1119
8,lawyer_8.png,a,g,t,4,1,33,6,a,1,0.4176578444,9,m,27,d,60.0087107,SNARC lie 1,2019_Apr_10_1212
4,lawyer_4.png,a,g,t,4,3,35,3,g,1,0.4176582108,11,f,21,d,60.03644348,SNARC lie 1,2019_Apr_10_1403
4,lawyer_4.png,a,g,t,4,4,36,3,a,1,0.4176593106,31,m,21,d,60.02297006,SNARC lie 1,2019_Apr_30_1303
3,lawyer_3.png,g,a,t,4,3,35,2,g,1,0.4176604101,32,f,21,d,60.00791881,SNARC lie 2,2019_Apr_30_1358
9,lawyer_9.png,g,a,t,2,7,23,7,a,1,0.417660777,37,m,24,d,60.1277463,SNARC lie 1,2019_May_16_1648
8,lawyer_8.png,a,g,t,2,2,18,6,g,1,0.4176611435,31,m,21,d,60.02297006,SNARC lie 1,2019_Apr_30_1303
7,lawyer_7.png,g,a,t,3,1,25,5,g,1,0.4176611435,36,f,20,d,60.02508316,SNARC lie 2,2019_May_16_1508
4,lawyer_4.png,a,g,t,1,6,14,3,g,1,0.4176615099,36,f,20,d,60.02508316,SNARC lie 2,2019_May_16_1508
7,lawyer_7.png,g,a,t,3,7,31,5,a,1,0.4176629761,22,f,22,d,60.02178155,SNARC lie 2,2019_Apr_18_1558
9,lawyer_9.png,g,a,t,1,1,9,7,a,1,0.4176637093,20,f,25,d,60.00527894,SNARC lie 2,2019_Apr_18_1410
2,lawyer_2.png,a,g,t,0,2,2,1,a,1,0.4176648089,17,f,26,d,60.03816113,SNARC lie 1,2019_Apr_18_1109
7,lawyer_7.png,g,a,t,2,3,19,5,g,1,0.4176666418,18,f,23,d,60.01702786,SNARC lie 2,2019_Apr_18_1207
2,lawyer_2.png,a,g,t,3,0,24,1,g,1,0.4176673747,15,f,19,d,60.03657565,SNARC lie 1,2019_Apr_17_1720
6,lawyer_6.png,a,g,t,0,2,2,4,g,1,0.4176684746,20,f,25,d,60.00527894,SNARC lie 2,2019_Apr_18_1410
9,lawyer_9.png,g,a,t,1,5,13,7,a,1,0.4176688413,36,f,20,d,60.02508316,SNARC lie 2,2019_May_16_1508
4,lawyer_4.png,a,g,t,2,5,21,3,a,1,0.4176717736,23,f,24,d,60.01161484,SNARC lie 1,2019_Apr_18_1730
9,lawyer_9.png,g,a,t,1,1,9,7,a,1,0.4176732397,14,m,21,d,60.00686277,SNARC lie 2,2019_Apr_17_1552
2,lawyer_2.png,a,g,t,1,1,9,1,a,1,0.4176736062,22,f,22,d,60.02178155,SNARC lie 2,2019_Apr_18_1558
2,lawyer_2.png,a,g,t,4,7,39,1,a,1,0.4176739729,32,f,21,d,60.00791881,SNARC lie 2,2019_Apr_30_1358
6,lawyer_6.png,a,g,t,3,6,30,4,g,1,0.4176743394,38,f,21,d,60.00791881,SNARC lie 2,2019_May_16_1737
4,lawyer_4.png,a,g,t,2,1,17,3,a,1,0.4176743395,7,f,24,d,60.00171555,SNARC lie 1,2019_Apr_10_1010
4,lawyer_4.png,a,g,t,4,5,37,3,a,1,0.4176743396,17,f,26,d,60.03816113,SNARC lie 1,2019_Apr_18_1109
2,lawyer_2.png,a,g,t,4,6,38,1,g,1,0.4176750726,7,f,24,d,60.00171555,SNARC lie 1,2019_Apr_10_1010
7,lawyer_7.png,g,a,t,0,5,5,5,g,1,0.4176761725,15,f,19,d,60.03657565,SNARC lie 1,2019_Apr_17_1720
1,lawyer_1.png,g,a,t,4,6,38,0,a,1,0.4176780051,30,m,26,d,60.02297006,SNARC lie 2,2019_Apr_30_1211
4,lawyer_4.png,a,g,t,4,6,38,3,g,1,0.4176780051,22,f,22,d,60.02178155,SNARC lie 2,2019_Apr_18_1558
4,lawyer_4.png,a,g,t,0,1,1,3,g,1,0.4176802044,35,m,21,d,60.01808426,SNARC lie 1,2019_May_16_1301
9,lawyer_9.png,g,a,t,3,0,24,7,a,1,0.4176813043,37,m,24,d,60.1277463,SNARC lie 1,2019_May_16_1648
1,lawyer_1.png,g,a,t,3,0,24,0,g,1,0.4176824037,35,m,21,d,60.01808426,SNARC lie 1,2019_May_16_1301
2,lawyer_2.png,a,g,t,4,1,33,1,a,1,0.4176827704,6,f,21,d,60.01676381,SNARC lie 2,2019_Apr_10_0911
2,lawyer_2.png,a,g,t,3,5,29,1,a,1,0.4176835036,17,f,26,d,60.03816113,SNARC lie 1,2019_Apr_18_1109
7,lawyer_7.png,g,a,t,3,4,28,5,a,1,0.4176842365,36,f,20,d,60.02508316,SNARC lie 2,2019_May_16_1508
3,lawyer_3.png,g,a,t,1,7,15,2,g,1,0.4176882687,32,f,21,d,60.00791881,SNARC lie 2,2019_Apr_30_1358
7,lawyer_7.png,g,a,t,4,1,33,5,a,1,0.4176886353,8,m,27,d,60.02468695,SNARC lie 2,2019_Apr_10_1125
4,lawyer_4.png,a,g,t,0,3,3,3,a,1,0.4176893684,22,f,22,d,60.02178155,SNARC lie 2,2019_Apr_18_1558
7,lawyer_7.png,g,a,t,2,7,23,5,a,1,0.417690468,31,m,21,d,60.02297006,SNARC lie 1,2019_Apr_30_1303
1,lawyer_1.png,g,a,t,1,2,10,0,a,1,0.4176904683,18,f,23,d,60.01702786,SNARC lie 2,2019_Apr_18_1207
3,lawyer_3.png,g,a,t,0,1,1,2,g,1,0.4176926676,15,f,19,d,60.03657565,SNARC lie 1,2019_Apr_17_1720
4,lawyer_4.png,a,g,t,3,7,31,3,a,1,0.4176937672,8,m,27,d,60.02468695,SNARC lie 2,2019_Apr_10_1125
2,lawyer_2.png,a,g,t,2,5,21,1,a,1,0.4176945002,31,m,21,d,60.02297006,SNARC lie 1,2019_Apr_30_1303
2,lawyer_2.png,a,g,t,2,3,19,1,g,1,0.4176985323,14,m,21,d,60.00686277,SNARC lie 2,2019_Apr_17_1552
7,lawyer_7.png,g,a,t,0,7,7,5,a,1,0.4177010984,18,f,23,d,60.01702786,SNARC lie 2,2019_Apr_18_1207
4,lawyer_4.png,a,g,t,3,3,27,3,g,1,0.4177062302,8,m,27,d,60.02468695,SNARC lie 2,2019_Apr_10_1125
1,lawyer_1.png,g,a,t,0,2,2,0,a,1,0.4177065967,26,f,24,d,60.01636775,SNARC lie 2,2019_Apr_24_1700
7,lawyer_7.png,g,a,t,1,2,10,5,a,1,0.4177095294,30,m,26,d,60.02297006,SNARC lie 2,2019_Apr_30_1211
7,lawyer_7.png,g,a,t,3,0,24,5,a,1,0.4177186933,8,m,27,d,60.02468695,SNARC lie 2,2019_Apr_10_1125
7,lawyer_7.png,g,a,t,2,1,17,5,a,1,0.4177194263,8,m,27,d,60.02468695,SNARC lie 2,2019_Apr_10_1125
6,lawyer_6.png,a,g,t,4,4,36,4,g,1,0.4177208929,30,m,26,d,60.02297006,SNARC lie 2,2019_Apr_30_1211
2,lawyer_2.png,a,g,t,0,0,0,1,a,1,0.4177304232,22,f,22,d,60.02178155,SNARC lie 2,2019_Apr_18_1558
6,lawyer_6.png,a,g,t,3,4,28,4,a,1,0.4177340888,17,f,26,d,60.03816113,SNARC lie 1,2019_Apr_18_1109
8,lawyer_8.png,a,g,t,2,4,20,6,g,1,0.4177436195,38,f,21,d,60.00791881,SNARC lie 2,2019_May_16_1737
4,lawyer_4.png,a,g,t,2,7,23,3,a,1,0.4177513169,35,m,21,d,60.01808426,SNARC lie 1,2019_May_16_1301
8,lawyer_8.png,a,g,t,3,2,26,6,g,1,0.41775315,17,f,26,d,60.03816113,SNARC lie 1,2019_Apr_18_1109
4,lawyer_4.png,a,g,t,4,1,33,3,g,1,0.4177568154,14,m,21,d,60.00686277,SNARC lie 2,2019_Apr_17_1552
4,lawyer_4.png,a,g,t,2,6,22,3,g,1,0.41776268,35,m,21,d,60.01808426,SNARC lie 1,2019_May_16_1301
6,lawyer_6.png,a,g,t,0,2,2,4,g,1,0.4177707447,9,m,27,d,60.0087107,SNARC lie 1,2019_Apr_10_1212
6,lawyer_6.png,a,g,t,1,6,14,4,a,1,0.4177806417,25,m,19,s,60.01491534,SNARC lie 1,2019_Apr_24_1610
6,lawyer_6.png,a,g,t,2,3,19,4,g,1,0.4178282944,37,m,24,d,60.1277463,SNARC lie 1,2019_May_16_1648
4,lawyer_4.png,a,g,t,0,2,2,3,a,1,0.4178411239,38,f,21,d,60.00791881,SNARC lie 2,2019_May_16_1737
8,lawyer_8.png,a,g,t,0,2,2,6,g,1,0.4179246998,14,m,21,d,60.00686277,SNARC lie 2,2019_Apr_17_1552
4,lawyer_4.png,a,g,t,0,7,7,3,g,1,0.4179254329,7,f,24,d,60.00171555,SNARC lie 1,2019_Apr_10_1010
1,lawyer_1.png,g,a,t,2,2,18,0,g,1,0.4179573236,38,f,21,d,60.00791881,SNARC lie 2,2019_May_16_1737
4,lawyer_4.png,a,g,t,3,7,31,3,g,1,0.418066192,34,f,23,s,60.01557549,SNARC lie 2,2019_May_16_1156
4,lawyer_4.png,a,g,t,1,5,13,3,g,1,0.418231877,14,m,21,d,60.00686277,SNARC lie 2,2019_Apr_17_1552
1,lawyer_1.png,g,a,t,1,1,9,0,a,1,0.4182894267,37,m,24,d,60.1277463,SNARC lie 1,2019_May_16_1648
3,lawyer_3.png,g,a,t,2,3,19,2,g,1,0.4335731366,37,m,24,d,60.1277463,SNARC lie 1,2019_May_16_1648
8,lawyer_8.png,a,g,t,3,2,26,6,g,1,0.4335841336,14,m,21,d,60.00686277,SNARC lie 2,2019_Apr_17_1552
4,lawyer_4.png,a,g,t,4,1,33,3,g,1,0.4336031945,18,f,23,d,60.01702786,SNARC lie 2,2019_Apr_18_1207
9,lawyer_9.png,g,a,t,4,4,36,7,g,1,0.433736989,1,f,27,d,59.90355943,SNARC lie 1,2019_Apr_01_1630
2,lawyer_2.png,a,g,t,1,1,9,1,a,1,0.4338429247,3,f,20,d,60.01201092,SNARC lie 1,2019_Apr_09_1542
4,lawyer_4.png,a,g,t,3,6,30,3,g,1,0.4338616193,3,f,20,d,60.01201092,SNARC lie 1,2019_Apr_09_1542
2,lawyer_2.png,a,g,t,0,6,6,1,g,1,0.433930166,1,f,27,d,59.90355943,SNARC lie 1,2019_Apr_01_1630
8,lawyer_8.png,a,g,t,4,3,35,6,g,1,0.433937497,32,f,21,d,60.00791881,SNARC lie 2,2019_Apr_30_1358
7,lawyer_7.png,g,a,t,4,7,39,5,g,1,0.4340459988,5,f,22,d,60.06486318,SNARC lie 1,2019_Apr_09_1752
4,lawyer_4.png,a,g,t,4,6,38,3,a,1,0.4340577287,5,f,22,d,60.06486318,SNARC lie 1,2019_Apr_09_1752
1,lawyer_1.png,g,a,t,3,2,26,0,a,1,0.4341669632,35,m,21,d,60.01808426,SNARC lie 1,2019_May_16_1301
8,lawyer_8.png,a,g,t,4,0,32,6,g,1,0.434180893,18,f,23,d,60.01702786,SNARC lie 2,2019_Apr_18_1207
1,lawyer_1.png,g,a,t,1,1,9,0,a,1,0.4342054523,5,f,22,d,60.06486318,SNARC lie 1,2019_Apr_09_1752
7,lawyer_7.png,g,a,t,3,0,24,5,g,1,0.4342105843,11,f,21,d,60.03644348,SNARC lie 1,2019_Apr_10_1403
4,lawyer_4.png,a,g,t,1,6,14,3,a,1,0.4342113172,5,f,22,d,60.06486318,SNARC lie 1,2019_Apr_09_1752
6,lawyer_6.png,a,g,t,3,2,26,4,a,1,0.4342193818,37,m,24,d,60.1277463,SNARC lie 1,2019_May_16_1648
7,lawyer_7.png,g,a,t,2,4,20,5,g,1,0.4342234137,21,f,20,d,60.02323421,SNARC lie 1,2019_Apr_18_1508
9,lawyer_9.png,g,a,t,2,5,21,7,g,1,0.4342311115,1,f,27,d,59.90355943,SNARC lie 1,2019_Apr_01_1630
2,lawyer_2.png,a,g,t,1,3,11,1,g,1,0.4342314783,30,m,26,d,60.02297006,SNARC lie 2,2019_Apr_30_1211
3,lawyer_3.png,g,a,t,4,0,32,2,g,1,0.4342325777,16,f,27,d,60.02680016,SNARC lie 2,2019_Apr_18_1009
8,lawyer_8.png,a,g,t,1,6,14,6,a,1,0.4342388094,14,m,21,d,60.00686277,SNARC lie 2,2019_Apr_17_1552
6,lawyer_6.png,a,g,t,0,2,2,4,a,1,0.4342457741,23,f,24,d,60.01161484,SNARC lie 1,2019_Apr_18_1730
1,lawyer_1.png,g,a,t,0,5,5,0,a,1,0.4342461405,35,m,21,d,60.01808426,SNARC lie 1,2019_May_16_1301
6,lawyer_6.png,a,g,t,4,0,32,4,a,1,0.4342501726,5,f,22,d,60.06486318,SNARC lie 1,2019_Apr_09_1752
4,lawyer_4.png,a,g,t,1,3,11,3,g,1,0.4342578701,35,m,21,d,60.01808426,SNARC lie 1,2019_May_16_1301
6,lawyer_6.png,a,g,t,0,1,1,4,a,1,0.434258237,21,f,20,d,60.02323421,SNARC lie 1,2019_Apr_18_1508
3,lawyer_3.png,g,a,t,0,7,7,2,g,1,0.434258237,21,f,20,d,60.02323421,SNARC lie 1,2019_Apr_18_1508
9,lawyer_9.png,g,a,t,4,7,39,7,a,1,0.4342681342,17,f,26,d,60.03816113,SNARC lie 1,2019_Apr_18_1109
8,lawyer_8.png,a,g,t,2,3,19,6,g,1,0.4342717999,35,m,21,d,60.01808426,SNARC lie 1,2019_May_16_1301
4,lawyer_4.png,a,g,t,3,5,29,3,g,1,0.4342721661,26,f,24,d,60.01636775,SNARC lie 2,2019_Apr_24_1700
9,lawyer_9.png,g,a,t,0,7,7,7,a,1,0.4342736322,36,f,20,d,60.02508316,SNARC lie 2,2019_May_16_1508
7,lawyer_7.png,g,a,t,0,2,2,5,a,1,0.4342747321,19,f,19,d,60.02878139,SNARC lie 1,2019_Apr_18_1302
3,lawyer_3.png,g,a,t,0,0,0,2,a,1,0.4342780311,6,f,21,d,60.01676381,SNARC lie 2,2019_Apr_10_0911
1,lawyer_1.png,g,a,t,4,5,37,0,g,1,0.4342787643,34,f,23,s,60.01557549,SNARC lie 2,2019_May_16_1156
7,lawyer_7.png,g,a,t,1,7,15,5,g,1,0.4342794975,18,f,23,d,60.01702786,SNARC lie 2,2019_Apr_18_1207
6,lawyer_6.png,a,g,t,0,4,4,4,g,1,0.4342805971,30,m,26,d,60.02297006,SNARC lie 2,2019_Apr_30_1211
2,lawyer_2.png,a,g,t,2,1,17,1,a,1,0.4342831632,23,f,24,d,60.01161484,SNARC lie 1,2019_Apr_18_1730
3,lawyer_3.png,g,a,t,3,0,24,2,a,1,0.4342860957,18,f,23,d,60.01702786,SNARC lie 2,2019_Apr_18_1207
6,lawyer_6.png,a,g,t,1,7,15,4,g,1,0.4342912273,35,m,21,d,60.01808426,SNARC lie 1,2019_May_16_1301
3,lawyer_3.png,g,a,t,4,6,38,2,g,1,0.4342912273,37,m,24,d,60.1277463,SNARC lie 1,2019_May_16_1648
3,lawyer_3.png,g,a,t,4,5,37,2,g,1,0.434293793,29,m,20,d,60.00580693,SNARC lie 1,2019_Apr_30_1119
8,lawyer_8.png,a,g,t,1,3,11,6,g,1,0.4342937933,7,f,24,d,60.00171555,SNARC lie 1,2019_Apr_10_1010
7,lawyer_7.png,g,a,t,3,4,28,5,g,1,0.4342948929,37,m,24,d,60.1277463,SNARC lie 1,2019_May_16_1648
3,lawyer_3.png,g,a,t,0,3,3,2,g,1,0.4342952594,34,f,23,s,60.01557549,SNARC lie 2,2019_May_16_1156
4,lawyer_4.png,a,g,t,1,0,8,3,a,1,0.4342959926,26,f,24,d,60.01636775,SNARC lie 2,2019_Apr_24_1700
7,lawyer_7.png,g,a,t,0,5,5,5,g,1,0.4342970923,22,f,22,d,60.02178155,SNARC lie 2,2019_Apr_18_1558
6,lawyer_6.png,a,g,t,3,2,26,4,g,1,0.4342978252,27,f,24,d,60.02257397,SNARC lie 1,2019_Apr_29_1114
1,lawyer_1.png,g,a,t,4,0,32,0,a,1,0.4342981919,22,f,22,d,60.02178155,SNARC lie 2,2019_Apr_18_1558
7,lawyer_7.png,g,a,t,2,4,20,5,g,1,0.4342981919,15,f,19,d,60.03657565,SNARC lie 1,2019_Apr_17_1720
3,lawyer_3.png,g,a,t,0,3,3,2,a,1,0.4342989251,8,m,27,d,60.02468695,SNARC lie 2,2019_Apr_10_1125
4,lawyer_4.png,a,g,t,3,4,28,3,g,1,0.4342992918,15,f,19,d,60.03657565,SNARC lie 1,2019_Apr_17_1720
7,lawyer_7.png,g,a,t,1,4,12,5,a,1,0.4343029573,35,m,21,d,60.01808426,SNARC lie 1,2019_May_16_1301
7,lawyer_7.png,g,a,t,4,6,38,5,a,1,0.4343047901,35,m,21,d,60.01808426,SNARC lie 1,2019_May_16_1301
6,lawyer_6.png,a,g,t,1,7,15,4,a,1,0.4343102886,17,f,26,d,60.03816113,SNARC lie 1,2019_Apr_18_1109
9,lawyer_9.png,g,a,t,0,5,5,7,g,1,0.4343128544,35,m,21,d,60.01808426,SNARC lie 1,2019_May_16_1301
2,lawyer_2.png,a,g,t,1,1,9,1,a,1,0.4343139541,12,m,24,d,60.00131965,SNARC lie 2,2019_Apr_17_1403
4,lawyer_4.png,a,g,t,3,6,30,3,g,1,0.4343157867,25,m,19,s,60.01491534,SNARC lie 1,2019_Apr_24_1610
8,lawyer_8.png,a,g,t,3,0,24,6,g,1,0.4343161534,23,f,24,d,60.01161484,SNARC lie 1,2019_Apr_18_1730
6,lawyer_6.png,a,g,t,0,2,2,4,a,1,0.43431652,7,f,24,d,60.00171555,SNARC lie 1,2019_Apr_10_1010
7,lawyer_7.png,g,a,t,4,0,32,5,a,1,0.434318353,37,m,24,d,60.1277463,SNARC lie 1,2019_May_16_1648
4,lawyer_4.png,a,g,t,1,2,10,3,g,1,0.4343198189,29,m,20,d,60.00580693,SNARC lie 1,2019_Apr_30_1119
8,lawyer_8.png,a,g,t,3,7,31,6,a,1,0.4343198191,24,f,21,m,59.99393041,SNARC lie 2,2019_Apr_24_0942
4,lawyer_4.png,a,g,t,1,5,13,3,g,1,0.4343201856,8,m,27,d,60.02468695,SNARC lie 2,2019_Apr_10_1125
4,lawyer_4.png,a,g,t,4,1,33,3,g,1,0.4343205523,26,f,24,d,60.01636775,SNARC lie 2,2019_Apr_24_1700
6,lawyer_6.png,a,g,t,0,1,1,4,g,1,0.4343205523,31,m,21,d,60.02297006,SNARC lie 1,2019_Apr_30_1303
2,lawyer_2.png,a,g,t,0,7,7,1,g,1,0.4343231181,31,m,21,d,60.02297006,SNARC lie 1,2019_Apr_30_1303
8,lawyer_8.png,a,g,t,1,0,8,6,g,1,0.4343242177,14,m,21,d,60.00686277,SNARC lie 2,2019_Apr_17_1552
6,lawyer_6.png,a,g,t,2,1,17,4,g,1,0.4343242177,23,f,24,d,60.01161484,SNARC lie 1,2019_Apr_18_1730
8,lawyer_8.png,a,g,t,1,0,8,6,g,1,0.4343245842,22,f,22,d,60.02178155,SNARC lie 2,2019_Apr_18_1558
4,lawyer_4.png,a,g,t,3,2,26,3,a,1,0.4343245843,11,f,21,d,60.03644348,SNARC lie 1,2019_Apr_10_1403
6,lawyer_6.png,a,g,t,0,2,2,4,g,1,0.4343249504,34,f,23,s,60.01557549,SNARC lie 2,2019_May_16_1156
2,lawyer_2.png,a,g,t,0,5,5,1,g,1,0.4343249509,8,m,27,d,60.02468695,SNARC lie 2,2019_Apr_10_1125
3,lawyer_3.png,g,a,t,3,7,31,2,g,1,0.4343249509,35,m,21,d,60.01808426,SNARC lie 1,2019_May_16_1301
2,lawyer_2.png,a,g,t,0,1,1,1,g,1,0.4343256839,13,f,19,d,60.00092376,SNARC lie 1,2019_Apr_17_1458
9,lawyer_9.png,g,a,t,3,0,24,7,g,1,0.434325684,9,m,27,d,60.0087107,SNARC lie 1,2019_Apr_10_1212
2,lawyer_2.png,a,g,t,0,0,0,1,a,1,0.4343267836,9,m,27,d,60.0087107,SNARC lie 1,2019_Apr_10_1212
2,lawyer_2.png,a,g,t,3,2,26,1,g,1,0.4343282501,28,f,21,d,60.03657565,SNARC lie 2,2019_Apr_30_0939
1,lawyer_1.png,g,a,t,1,1,9,0,g,1,0.4343289831,27,f,24,d,60.02257397,SNARC lie 1,2019_Apr_29_1114
3,lawyer_3.png,g,a,t,0,7,7,2,g,1,0.4343289831,35,m,21,d,60.01808426,SNARC lie 1,2019_May_16_1301
7,lawyer_7.png,g,a,t,1,5,13,5,g,1,0.4343304492,8,m,27,d,60.02468695,SNARC lie 2,2019_Apr_10_1125
3,lawyer_3.png,g,a,t,0,3,3,2,g,1,0.4343311824,11,f,21,d,60.03644348,SNARC lie 1,2019_Apr_10_1403
7,lawyer_7.png,g,a,t,0,3,3,5,g,1,0.4343311824,18,f,23,d,60.01702786,SNARC lie 2,2019_Apr_18_1207
6,lawyer_6.png,a,g,t,0,7,7,4,g,1,0.4343315489,8,m,27,d,60.02468695,SNARC lie 2,2019_Apr_10_1125
9,lawyer_9.png,g,a,t,3,4,28,7,a,1,0.4343322821,22,f,22,d,60.02178155,SNARC lie 2,2019_Apr_18_1558
8,lawyer_8.png,a,g,t,3,2,26,6,a,1,0.4343333817,32,f,21,d,60.00791881,SNARC lie 2,2019_Apr_30_1358
8,lawyer_8.png,a,g,t,1,3,11,6,a,1,0.4343344816,34,f,23,s,60.01557549,SNARC lie 2,2019_May_16_1156
9,lawyer_9.png,g,a,t,3,6,30,7,g,1,0.4343352146,17,f,26,d,60.03816113,SNARC lie 1,2019_Apr_18_1109
1,lawyer_1.png,g,a,t,2,2,18,0,g,1,0.4343381468,37,m,24,d,60.1277463,SNARC lie 1,2019_May_16_1648
2,lawyer_2.png,a,g,t,4,4,36,1,g,1,0.4343407128,19,f,19,d,60.02878139,SNARC lie 1,2019_Apr_18_1302
7,lawyer_7.png,g,a,t,3,7,31,5,a,1,0.4343407131,25,m,19,s,60.01491534,SNARC lie 1,2019_Apr_24_1610
7,lawyer_7.png,g,a,t,0,3,3,5,a,1,0.4343407131,36,f,20,d,60.02508316,SNARC lie 2,2019_May_16_1508
9,lawyer_9.png,g,a,t,1,1,9,7,g,1,0.4343407131,37,m,24,d,60.1277463,SNARC lie 1,2019_May_16_1648
4,lawyer_4.png,a,g,t,2,3,19,3,g,1,0.4343418125,21,f,20,d,60.02323421,SNARC lie 1,2019_Apr_18_1508
2,lawyer_2.png,a,g,t,2,4,20,1,a,1,0.4343429124,14,m,21,d,60.00686277,SNARC lie 2,2019_Apr_17_1552
7,lawyer_7.png,g,a,t,2,0,16,5,g,1,0.4343462114,26,f,24,d,60.01636775,SNARC lie 2,2019_Apr_24_1700
4,lawyer_4.png,a,g,t,1,2,10,3,g,1,0.4343465779,22,f,22,d,60.02178155,SNARC lie 2,2019_Apr_18_1558
8,lawyer_8.png,a,g,t,4,4,36,6,a,1,0.434347311,24,f,21,m,59.99393041,SNARC lie 2,2019_Apr_24_0942
1,lawyer_1.png,g,a,t,1,0,8,0,a,1,0.434347311,27,f,24,d,60.02257397,SNARC lie 1,2019_Apr_29_1114
4,lawyer_4.png,a,g,t,2,7,23,3,g,1,0.4343487772,7,f,24,d,60.00171555,SNARC lie 1,2019_Apr_10_1010
4,lawyer_4.png,a,g,t,3,5,29,3,a,1,0.4343502433,29,m,20,d,60.00580693,SNARC lie 1,2019_Apr_30_1119
2,lawyer_2.png,a,g,t,2,3,19,1,a,1,0.4343520761,29,m,20,d,60.00580693,SNARC lie 1,2019_Apr_30_1119
2,lawyer_2.png,a,g,t,1,4,12,1,g,1,0.4343557418,36,f,20,d,60.02508316,SNARC lie 2,2019_May_16_1508
6,lawyer_6.png,a,g,t,4,2,34,4,a,1,0.4343575747,37,m,24,d,60.1277463,SNARC lie 1,2019_May_16_1648
3,lawyer_3.png,g,a,t,3,6,30,2,a,1,0.4343579412,26,f,24,d,60.01636775,SNARC lie 2,2019_Apr_24_1700
2,lawyer_2.png,a,g,t,0,4,4,1,a,1,0.4343634397,32,f,21,d,60.00791881,SNARC lie 2,2019_Apr_30_1358
4,lawyer_4.png,a,g,t,0,7,7,3,g,1,0.4343696712,14,m,21,d,60.00686277,SNARC lie 2,2019_Apr_17_1552
8,lawyer_8.png,a,g,t,4,2,34,6,g,1,0.434372237,30,m,26,d,60.02297006,SNARC lie 2,2019_Apr_30_1211
2,lawyer_2.png,a,g,t,3,5,29,1,a,1,0.4343784685,7,f,24,d,60.00171555,SNARC lie 1,2019_Apr_10_1010
2,lawyer_2.png,a,g,t,4,3,35,1,a,1,0.4343821341,31,m,21,d,60.02297006,SNARC lie 1,2019_Apr_30_1303
8,lawyer_8.png,a,g,t,0,3,3,6,g,1,0.4343843334,26,f,24,d,60.01636775,SNARC lie 2,2019_Apr_24_1700
4,lawyer_4.png,a,g,t,1,0,8,3,a,1,0.4343847001,23,f,24,d,60.01161484,SNARC lie 1,2019_Apr_18_1730
2,lawyer_2.png,a,g,t,0,4,4,1,g,1,0.4343909316,19,f,19,d,60.02878139,SNARC lie 1,2019_Apr_18_1302
8,lawyer_8.png,a,g,t,3,4,28,6,a,1,0.4343920313,25,m,19,s,60.01491534,SNARC lie 1,2019_Apr_24_1610
4,lawyer_4.png,a,g,t,1,4,12,3,g,1,0.434395697,21,f,20,d,60.02323421,SNARC lie 1,2019_Apr_18_1508
1,lawyer_1.png,g,a,t,3,1,25,0,a,1,0.4344103592,4,f,24,d,60.03340485,SNARC lie 2,2019_Apr_09_1700
6,lawyer_6.png,a,g,t,4,3,35,4,g,1,0.4344125588,22,f,22,d,60.02178155,SNARC lie 2,2019_Apr_18_1558
8,lawyer_8.png,a,g,t,1,3,11,6,g,1,0.4344195232,17,f,26,d,60.03816113,SNARC lie 1,2019_Apr_18_1109
2,lawyer_2.png,a,g,t,4,1,33,1,g,1,0.4344242886,22,f,22,d,60.02178155,SNARC lie 2,2019_Apr_18_1558
3,lawyer_3.png,g,a,t,4,2,34,2,a,1,0.4344279543,36,f,20,d,60.02508316,SNARC lie 2,2019_May_16_1508
2,lawyer_2.png,a,g,t,1,3,11,1,a,1,0.4344323529,38,f,21,d,60.00791881,SNARC lie 2,2019_May_16_1737
3,lawyer_3.png,g,a,t,4,4,36,2,a,1,0.4344440827,23,f,24,d,60.01161484,SNARC lie 1,2019_Apr_18_1730
8,lawyer_8.png,a,g,t,4,0,32,6,g,1,0.4344660761,36,f,20,d,60.02508316,SNARC lie 2,2019_May_16_1508
2,lawyer_2.png,a,g,t,2,4,20,1,a,1,0.4344990668,37,m,24,d,60.1277463,SNARC lie 1,2019_May_16_1648
3,lawyer_3.png,g,a,t,3,5,29,2,a,1,0.4345375556,38,f,21,d,60.00791881,SNARC lie 2,2019_May_16_1737
9,lawyer_9.png,g,a,t,4,5,37,7,g,1,0.4346079349,23,f,24,d,60.01161484,SNARC lie 1,2019_Apr_18_1730
8,lawyer_8.png,a,g,t,1,7,15,6,g,1,0.4347783852,3,f,20,d,60.01201092,SNARC lie 1,2019_Apr_09_1542
4,lawyer_4.png,a,g,t,2,5,21,3,a,1,0.4501456709,14,m,21,d,60.00686277,SNARC lie 2,2019_Apr_17_1552
9,lawyer_9.png,g,a,t,4,0,32,7,a,1,0.4501881916,38,f,21,d,60.00791881,SNARC lie 2,2019_May_16_1737
7,lawyer_7.png,g,a,t,1,1,9,5,g,1,0.4501911243,13,f,19,d,60.00092376,SNARC lie 1,2019_Apr_17_1458
7,lawyer_7.png,g,a,t,2,0,16,5,a,1,0.4502017549,37,m,24,d,60.1277463,SNARC lie 1,2019_May_16_1648
8,lawyer_8.png,a,g,t,3,6,30,6,g,1,0.4502384105,11,f,21,d,60.03644348,SNARC lie 1,2019_Apr_10_1403
4,lawyer_4.png,a,g,t,1,3,11,3,g,1,0.4502461082,20,f,25,d,60.00527894,SNARC lie 2,2019_Apr_18_1410
4,lawyer_4.png,a,g,t,0,3,3,3,g,1,0.4502479411,23,f,24,d,60.01161484,SNARC lie 1,2019_Apr_18_1730
1,lawyer_1.png,g,a,t,2,3,19,0,a,1,0.4502684684,27,f,24,d,60.02257397,SNARC lie 1,2019_Apr_29_1114
1,lawyer_1.png,g,a,t,0,1,1,0,a,1,0.4502703012,32,f,21,d,60.00791881,SNARC lie 2,2019_Apr_30_1358
6,lawyer_6.png,a,g,t,1,2,10,4,a,1,0.4502776325,4,f,24,d,60.03340485,SNARC lie 2,2019_Apr_09_1700
1,lawyer_1.png,g,a,t,2,4,20,0,a,1,0.4502820311,7,f,24,d,60.00171555,SNARC lie 1,2019_Apr_10_1010
7,lawyer_7.png,g,a,t,0,1,1,5,a,1,0.450287896,6,f,21,d,60.01676381,SNARC lie 2,2019_Apr_10_0911
6,lawyer_6.png,a,g,t,4,1,33,4,g,1,0.4503351823,32,f,21,d,60.00791881,SNARC lie 2,2019_Apr_30_1358
2,lawyer_2.png,a,g,t,2,6,22,1,g,1,0.450428655,3,f,20,d,60.01201092,SNARC lie 1,2019_Apr_09_1542
1,lawyer_1.png,g,a,t,0,3,3,0,a,1,0.4504587129,12,m,24,d,60.00131965,SNARC lie 2,2019_Apr_17_1403
7,lawyer_7.png,g,a,t,3,5,29,5,g,1,0.4505081985,3,f,20,d,60.01201092,SNARC lie 1,2019_Apr_09_1542
2,lawyer_2.png,a,g,t,2,3,19,1,a,1,0.4505782115,4,f,24,d,60.03340485,SNARC lie 2,2019_Apr_09_1700
4,lawyer_4.png,a,g,t,4,0,32,3,g,1,0.450658488,4,f,24,d,60.03340485,SNARC lie 2,2019_Apr_09_1700
7,lawyer_7.png,g,a,t,3,1,25,5,a,1,0.4507398643,35,m,21,d,60.01808426,SNARC lie 1,2019_May_16_1301
9,lawyer_9.png,g,a,t,4,0,32,7,g,1,0.4508124432,14,m,21,d,60.00686277,SNARC lie 2,2019_Apr_17_1552
6,lawyer_6.png,a,g,t,3,5,29,4,g,1,0.4508322373,25,m,19,s,60.01491534,SNARC lie 1,2019_Apr_24_1610
9,lawyer_9.png,g,a,t,1,5,13,7,g,1,0.4508388354,5,f,22,d,60.06486318,SNARC lie 1,2019_Apr_09_1752
7,lawyer_7.png,g,a,t,3,1,25,5,g,1,0.4509062823,25,m,19,s,60.01491534,SNARC lie 1,2019_Apr_24_1610
6,lawyer_6.png,a,g,t,4,5,37,4,g,1,0.450915446,35,m,21,d,60.01808426,SNARC lie 1,2019_May_16_1301
1,lawyer_1.png,g,a,t,1,1,9,0,a,1,0.4509169126,22,f,22,d,60.02178155,SNARC lie 2,2019_Apr_18_1558
4,lawyer_4.png,a,g,t,1,3,11,3,a,1,0.4509209448,12,m,24,d,60.00131965,SNARC lie 2,2019_Apr_17_1403
8,lawyer_8.png,a,g,t,2,3,19,6,a,1,0.4509242438,7,f,24,d,60.00171555,SNARC lie 1,2019_Apr_10_1010
7,lawyer_7.png,g,a,t,4,3,35,5,g,1,0.4509253437,34,f,23,s,60.01557549,SNARC lie 2,2019_May_16_1156
3,lawyer_3.png,g,a,t,2,0,16,2,a,1,0.4509260766,30,m,26,d,60.02297006,SNARC lie 2,2019_Apr_30_1211
4,lawyer_4.png,a,g,t,0,6,6,3,a,1,0.4509268097,7,f,24,d,60.00171555,SNARC lie 1,2019_Apr_10_1010
3,lawyer_3.png,g,a,t,4,2,34,2,g,1,0.4509286424,21,f,20,d,60.02323421,SNARC lie 1,2019_Apr_18_1508
4,lawyer_4.png,a,g,t,1,4,12,3,a,1,0.4509297423,18,f,23,d,60.01702786,SNARC lie 2,2019_Apr_18_1207
9,lawyer_9.png,g,a,t,3,1,25,7,a,1,0.4509304753,26,f,24,d,60.01636775,SNARC lie 2,2019_Apr_24_1700
1,lawyer_1.png,g,a,t,2,2,18,0,a,1,0.4509359738,21,f,20,d,60.02323421,SNARC lie 1,2019_Apr_18_1508
7,lawyer_7.png,g,a,t,3,0,24,5,a,1,0.45093744,11,f,21,d,60.03644348,SNARC lie 1,2019_Apr_10_1403
2,lawyer_2.png,a,g,t,1,5,13,1,a,1,0.4509378066,15,f,19,d,60.03657565,SNARC lie 1,2019_Apr_17_1720
7,lawyer_7.png,g,a,t,2,6,22,5,a,1,0.4509422053,14,m,21,d,60.00686277,SNARC lie 2,2019_Apr_17_1552
7,lawyer_7.png,g,a,t,4,3,35,5,a,1,0.4509422053,30,m,26,d,60.02297006,SNARC lie 2,2019_Apr_30_1211
6,lawyer_6.png,a,g,t,4,0,32,4,a,1,0.4509440381,36,f,20,d,60.02508316,SNARC lie 2,2019_May_16_1508
7,lawyer_7.png,g,a,t,0,6,6,5,g,1,0.450945871,30,m,26,d,60.02297006,SNARC lie 2,2019_Apr_30_1211
6,lawyer_6.png,a,g,t,0,7,7,4,a,1,0.4509466039,17,f,26,d,60.03816113,SNARC lie 1,2019_Apr_18_1109
2,lawyer_2.png,a,g,t,4,3,35,1,g,1,0.4509466039,15,f,19,d,60.03657565,SNARC lie 1,2019_Apr_17_1720
8,lawyer_8.png,a,g,t,3,3,27,6,g,1,0.4509477037,7,f,24,d,60.00171555,SNARC lie 1,2019_Apr_10_1010
4,lawyer_4.png,a,g,t,2,6,22,3,a,1,0.4509499029,18,f,23,d,60.01702786,SNARC lie 2,2019_Apr_18_1207
3,lawyer_3.png,g,a,t,0,2,2,2,g,1,0.4509506365,36,f,20,d,60.02508316,SNARC lie 2,2019_May_16_1508
4,lawyer_4.png,a,g,t,3,0,24,3,a,1,0.4509554014,23,f,24,d,60.01161484,SNARC lie 1,2019_Apr_18_1730
6,lawyer_6.png,a,g,t,2,0,16,4,g,1,0.450955768,8,m,27,d,60.02468695,SNARC lie 2,2019_Apr_10_1125
2,lawyer_2.png,a,g,t,1,7,15,1,g,1,0.4509568675,37,m,24,d,60.1277463,SNARC lie 1,2019_May_16_1648
9,lawyer_9.png,g,a,t,0,3,3,7,g,1,0.4509576005,36,f,20,d,60.02508316,SNARC lie 2,2019_May_16_1508
6,lawyer_6.png,a,g,t,1,3,11,4,a,1,0.4509583339,35,m,21,d,60.01808426,SNARC lie 1,2019_May_16_1301
8,lawyer_8.png,a,g,t,3,3,27,6,a,1,0.4509583339,36,f,20,d,60.02508316,SNARC lie 2,2019_May_16_1508
7,lawyer_7.png,g,a,t,2,5,21,5,g,1,0.4509605332,27,f,24,d,60.02257397,SNARC lie 1,2019_Apr_29_1114
8,lawyer_8.png,a,g,t,0,1,1,6,g,1,0.4509616331,36,f,20,d,60.02508316,SNARC lie 2,2019_May_16_1508
3,lawyer_3.png,g,a,t,1,0,8,2,g,1,0.450963832,37,m,24,d,60.1277463,SNARC lie 1,2019_May_16_1648
7,lawyer_7.png,g,a,t,0,0,0,5,g,1,0.4509645655,7,f,24,d,60.00171555,SNARC lie 1,2019_Apr_10_1010
7,lawyer_7.png,g,a,t,1,4,12,5,g,1,0.4509649319,36,f,20,d,60.02508316,SNARC lie 2,2019_May_16_1508
2,lawyer_2.png,a,g,t,2,5,21,1,a,1,0.4509649321,18,f,23,d,60.01702786,SNARC lie 2,2019_Apr_18_1207
3,lawyer_3.png,g,a,t,2,3,19,2,a,1,0.4509656653,31,m,21,d,60.02297006,SNARC lie 1,2019_Apr_30_1303
1,lawyer_1.png,g,a,t,3,5,29,0,a,1,0.4509667647,30,m,26,d,60.02297006,SNARC lie 2,2019_Apr_30_1211
2,lawyer_2.png,a,g,t,0,1,1,1,g,1,0.4509671313,11,f,21,d,60.03644348,SNARC lie 1,2019_Apr_10_1403
4,lawyer_4.png,a,g,t,4,0,32,3,a,1,0.4509674979,25,m,19,s,60.01491534,SNARC lie 1,2019_Apr_24_1610
4,lawyer_4.png,a,g,t,1,1,9,3,g,1,0.4509674979,18,f,23,d,60.01702786,SNARC lie 2,2019_Apr_18_1207
2,lawyer_2.png,a,g,t,2,5,21,1,g,1,0.4509685976,18,f,23,d,60.01702786,SNARC lie 2,2019_Apr_18_1207
1,lawyer_1.png,g,a,t,3,2,26,0,a,1,0.4509707971,23,f,24,d,60.01161484,SNARC lie 1,2019_Apr_18_1730
2,lawyer_2.png,a,g,t,2,5,21,1,a,1,0.4509715301,11,f,21,d,60.03644348,SNARC lie 1,2019_Apr_10_1403
2,lawyer_2.png,a,g,t,1,2,10,1,a,1,0.4509729962,16,f,27,d,60.02680016,SNARC lie 2,2019_Apr_18_1009
3,lawyer_3.png,g,a,t,1,2,10,2,a,1,0.4509729962,21,f,20,d,60.02323421,SNARC lie 1,2019_Apr_18_1508
7,lawyer_7.png,g,a,t,0,4,4,5,a,1,0.450974829,8,m,27,d,60.02468695,SNARC lie 2,2019_Apr_10_1125
9,lawyer_9.png,g,a,t,1,6,14,7,g,1,0.450974829,11,f,21,d,60.03644348,SNARC lie 1,2019_Apr_10_1403
8,lawyer_8.png,a,g,t,1,2,10,6,a,1,0.4509773948,36,f,20,d,60.02508316,SNARC lie 2,2019_May_16_1508
4,lawyer_4.png,a,g,t,3,7,31,3,a,1,0.4509777615,25,m,19,s,60.01491534,SNARC lie 1,2019_Apr_24_1610
2,lawyer_2.png,a,g,t,0,1,1,1,a,1,0.4509781278,36,f,20,d,60.02508316,SNARC lie 2,2019_May_16_1508
1,lawyer_1.png,g,a,t,2,2,18,0,g,1,0.4509792277,16,f,27,d,60.02680016,SNARC lie 2,2019_Apr_18_1009
9,lawyer_9.png,g,a,t,1,0,8,7,g,1,0.4509803276,12,m,24,d,60.00131965,SNARC lie 2,2019_Apr_17_1403
3,lawyer_3.png,g,a,t,2,2,18,2,g,1,0.4509803276,25,m,19,s,60.01491534,SNARC lie 1,2019_Apr_24_1610
3,lawyer_3.png,g,a,t,1,4,12,2,a,1,0.450980694,14,m,21,d,60.00686277,SNARC lie 2,2019_Apr_17_1552
3,lawyer_3.png,g,a,t,1,2,10,2,a,1,0.450980694,23,f,24,d,60.01161484,SNARC lie 1,2019_Apr_18_1730
8,lawyer_8.png,a,g,t,4,3,35,6,a,1,0.4509810605,27,f,24,d,60.02257397,SNARC lie 1,2019_Apr_29_1114
6,lawyer_6.png,a,g,t,3,7,31,4,g,1,0.4509821603,7,f,24,d,60.00171555,SNARC lie 1,2019_Apr_10_1010
7,lawyer_7.png,g,a,t,0,4,4,5,a,1,0.4509825269,14,m,21,d,60.00686277,SNARC lie 2,2019_Apr_17_1552
1,lawyer_1.png,g,a,t,0,6,6,0,a,1,0.4509828934,7,f,24,d,60.00171555,SNARC lie 1,2019_Apr_10_1010
1,lawyer_1.png,g,a,t,4,2,34,0,g,1,0.4509832601,23,f,24,d,60.01161484,SNARC lie 1,2019_Apr_18_1730
9,lawyer_9.png,g,a,t,2,0,16,7,g,1,0.4509836265,21,f,20,d,60.02323421,SNARC lie 1,2019_Apr_18_1508
7,lawyer_7.png,g,a,t,2,6,22,5,a,1,0.4509854591,25,m,19,s,60.01491534,SNARC lie 1,2019_Apr_24_1610
8,lawyer_8.png,a,g,t,0,6,6,6,a,1,0.4509854591,35,m,21,d,60.01808426,SNARC lie 1,2019_May_16_1301
9,lawyer_9.png,g,a,t,3,2,26,7,g,1,0.4509854591,34,f,23,s,60.01557549,SNARC lie 2,2019_May_16_1156
7,lawyer_7.png,g,a,t,3,6,30,5,g,1,0.4509858259,22,f,22,d,60.02178155,SNARC lie 2,2019_Apr_18_1558
7,lawyer_7.png,g,a,t,4,2,34,5,a,1,0.4509861926,33,f,20,d,60.02283803,SNARC lie 1,2019_Apr_30_1445
6,lawyer_6.png,a,g,t,3,2,26,4,g,1,0.4509876589,36,f,20,d,60.02508316,SNARC lie 2,2019_May_16_1508
4,lawyer_4.png,a,g,t,2,5,21,3,a,1,0.4509891248,21,f,20,d,60.02323421,SNARC lie 1,2019_Apr_18_1508
4,lawyer_4.png,a,g,t,2,7,23,3,a,1,0.4509894913,17,f,26,d,60.03816113,SNARC lie 1,2019_Apr_18_1109
8,lawyer_8.png,a,g,t,0,1,1,6,a,1,0.4509894913,37,m,24,d,60.1277463,SNARC lie 1,2019_May_16_1648
8,lawyer_8.png,a,g,t,3,6,30,6,g,1,0.4509902243,30,m,26,d,60.02297006,SNARC lie 2,2019_Apr_30_1211
2,lawyer_2.png,a,g,t,3,1,25,1,a,1,0.4509902247,21,f,20,d,60.02323421,SNARC lie 1,2019_Apr_18_1508
1,lawyer_1.png,g,a,t,0,7,7,0,a,1,0.450990591,22,f,22,d,60.02178155,SNARC lie 2,2019_Apr_18_1558
1,lawyer_1.png,g,a,t,0,3,3,0,g,1,0.4509927905,9,m,27,d,60.0087107,SNARC lie 1,2019_Apr_10_1212
6,lawyer_6.png,a,g,t,1,4,12,4,g,1,0.450993157,23,f,24,d,60.01161484,SNARC lie 1,2019_Apr_18_1730
9,lawyer_9.png,g,a,t,0,3,3,7,a,1,0.4509935237,14,m,21,d,60.00686277,SNARC lie 2,2019_Apr_17_1552
8,lawyer_8.png,a,g,t,2,3,19,6,a,1,0.4509953564,8,m,27,d,60.02468695,SNARC lie 2,2019_Apr_10_1125
9,lawyer_9.png,g,a,t,3,4,28,7,g,1,0.450995723,11,f,21,d,60.03644348,SNARC lie 1,2019_Apr_10_1403
6,lawyer_6.png,a,g,t,2,6,22,4,a,1,0.4509960895,21,f,20,d,60.02323421,SNARC lie 1,2019_Apr_18_1508
4,lawyer_4.png,a,g,t,2,6,22,3,g,1,0.4509960895,23,f,24,d,60.01161484,SNARC lie 1,2019_Apr_18_1730
7,lawyer_7.png,g,a,t,1,0,8,5,g,1,0.4509971892,14,m,21,d,60.00686277,SNARC lie 2,2019_Apr_17_1552
9,lawyer_9.png,g,a,t,3,6,30,7,g,1,0.4509971893,6,f,21,d,60.01676381,SNARC lie 2,2019_Apr_10_0911
2,lawyer_2.png,a,g,t,0,4,4,1,g,1,0.450998289,23,f,24,d,60.01161484,SNARC lie 1,2019_Apr_18_1730
9,lawyer_9.png,g,a,t,1,4,12,7,a,1,0.450999022,22,f,22,d,60.02178155,SNARC lie 2,2019_Apr_18_1558
9,lawyer_9.png,g,a,t,0,2,2,7,g,1,0.450999022,15,f,19,d,60.03657565,SNARC lie 1,2019_Apr_17_1720
9,lawyer_9.png,g,a,t,0,3,3,7,g,1,0.451004887,1,f,27,d,59.90355943,SNARC lie 1,2019_Apr_01_1630
2,lawyer_2.png,a,g,t,0,6,6,1,a,1,0.4510067198,15,f,19,d,60.03657565,SNARC lie 1,2019_Apr_17_1720
1,lawyer_1.png,g,a,t,3,4,28,0,a,1,0.451008186,7,f,24,d,60.00171555,SNARC lie 1,2019_Apr_10_1010
6,lawyer_6.png,a,g,t,3,4,28,4,g,1,0.4510103855,34,f,23,s,60.01557549,SNARC lie 2,2019_May_16_1156
6,lawyer_6.png,a,g,t,3,3,27,4,a,1,0.4510147842,23,f,24,d,60.01161484,SNARC lie 1,2019_Apr_18_1730
3,lawyer_3.png,g,a,t,3,0,24,2,a,1,0.4510206491,7,f,24,d,60.00171555,SNARC lie 1,2019_Apr_10_1010
9,lawyer_9.png,g,a,t,3,2,26,7,g,1,0.4510221151,13,f,19,d,60.00092376,SNARC lie 1,2019_Apr_17_1458
6,lawyer_6.png,a,g,t,0,4,4,4,g,1,0.4510224818,26,f,24,d,60.01636775,SNARC lie 2,2019_Apr_24_1700
6,lawyer_6.png,a,g,t,1,5,13,4,a,1,0.4510235814,14,m,21,d,60.00686277,SNARC lie 2,2019_Apr_17_1552
2,lawyer_2.png,a,g,t,0,6,6,1,g,1,0.4510235814,17,f,26,d,60.03816113,SNARC lie 1,2019_Apr_18_1109
4,lawyer_4.png,a,g,t,4,6,38,3,a,1,0.451023948,7,f,24,d,60.00171555,SNARC lie 1,2019_Apr_10_1010
4,lawyer_4.png,a,g,t,3,7,31,3,a,1,0.4510246811,13,f,19,d,60.00092376,SNARC lie 1,2019_Apr_17_1458
6,lawyer_6.png,a,g,t,4,6,38,4,g,1,0.4510250478,36,f,20,d,60.02508316,SNARC lie 2,2019_May_16_1508
6,lawyer_6.png,a,g,t,4,0,32,4,g,1,0.451025781,23,f,24,d,60.01161484,SNARC lie 1,2019_Apr_18_1730
2,lawyer_2.png,a,g,t,3,5,29,1,g,1,0.4510276137,7,f,24,d,60.00171555,SNARC lie 1,2019_Apr_10_1010
9,lawyer_9.png,g,a,t,3,6,30,7,a,1,0.4510316458,17,f,26,d,60.03816113,SNARC lie 1,2019_Apr_18_1109
7,lawyer_7.png,g,a,t,4,1,33,5,g,1,0.4510334788,15,f,19,d,60.03657565,SNARC lie 1,2019_Apr_17_1720
8,lawyer_8.png,a,g,t,4,4,36,6,g,1,0.451044109,17,f,26,d,60.03816113,SNARC lie 1,2019_Apr_18_1109
2,lawyer_2.png,a,g,t,2,4,20,1,a,1,0.4510463083,25,m,19,s,60.01491534,SNARC lie 1,2019_Apr_24_1610
7,lawyer_7.png,g,a,t,4,0,32,5,g,1,0.4510474077,23,f,24,d,60.01161484,SNARC lie 1,2019_Apr_18_1730
9,lawyer_9.png,g,a,t,3,3,27,7,g,1,0.4510492405,25,m,19,s,60.01491534,SNARC lie 1,2019_Apr_24_1610
1,lawyer_1.png,g,a,t,3,5,29,0,a,1,0.4510598709,36,f,20,d,60.02508316,SNARC lie 2,2019_May_16_1508
9,lawyer_9.png,g,a,t,4,4,36,7,a,1,0.4510620702,22,f,22,d,60.02178155,SNARC lie 2,2019_Apr_18_1558
4,lawyer_4.png,a,g,t,3,1,25,3,g,1,0.4510620702,17,f,26,d,60.03816113,SNARC lie 1,2019_Apr_18_1109
6,lawyer_6.png,a,g,t,3,4,28,4,g,1,0.4510631701,30,m,26,d,60.02297006,SNARC lie 2,2019_Apr_30_1211
1,lawyer_1.png,g,a,t,4,7,39,0,a,1,0.4510672021,7,f,24,d,60.00171555,SNARC lie 1,2019_Apr_10_1010
2,lawyer_2.png,a,g,t,1,2,10,1,a,1,0.4511060575,21,f,20,d,60.02323421,SNARC lie 1,2019_Apr_18_1508
2,lawyer_2.png,a,g,t,4,2,34,1,g,1,0.4511097232,26,f,24,d,60.01636775,SNARC lie 2,2019_Apr_24_1700
2,lawyer_2.png,a,g,t,1,7,15,1,a,1,0.4511100897,9,m,27,d,60.0087107,SNARC lie 1,2019_Apr_10_1212
7,lawyer_7.png,g,a,t,0,2,2,5,a,1,0.4511225527,7,f,24,d,60.00171555,SNARC lie 1,2019_Apr_10_1010
2,lawyer_2.png,a,g,t,3,2,26,1,g,1,0.4511287841,34,f,23,s,60.01557549,SNARC lie 2,2019_May_16_1156
9,lawyer_9.png,g,a,t,2,1,17,7,g,1,0.4511705718,18,f,23,d,60.01702786,SNARC lie 2,2019_Apr_18_1207
8,lawyer_8.png,a,g,t,1,0,8,6,g,1,0.4512893374,18,f,23,d,60.01702786,SNARC lie 2,2019_Apr_18_1207
2,lawyer_2.png,a,g,t,1,3,11,1,a,1,0.4663263524,23,f,24,d,60.01161484,SNARC lie 1,2019_Apr_18_1730
6,lawyer_6.png,a,g,t,1,4,12,4,a,1,0.4668116777,3,f,20,d,60.01201092,SNARC lie 1,2019_Apr_09_1542
1,lawyer_1.png,g,a,t,4,4,36,0,a,1,0.4668204752,12,m,24,d,60.00131965,SNARC lie 2,2019_Apr_17_1403
6,lawyer_6.png,a,g,t,3,2,26,4,a,1,0.4668897549,21,f,20,d,60.02323421,SNARC lie 1,2019_Apr_18_1508
7,lawyer_7.png,g,a,t,2,3,19,5,g,1,0.4668934206,17,f,26,d,60.03816113,SNARC lie 1,2019_Apr_18_1109
7,lawyer_7.png,g,a,t,3,6,30,5,a,1,0.4668970862,21,f,20,d,60.02323421,SNARC lie 1,2019_Apr_18_1508
2,lawyer_2.png,a,g,t,1,3,11,1,g,1,0.4669033177,11,f,21,d,60.03644348,SNARC lie 1,2019_Apr_10_1403
8,lawyer_8.png,a,g,t,3,5,29,6,a,1,0.4669157807,9,m,27,d,60.0087107,SNARC lie 1,2019_Apr_10_1212
7,lawyer_7.png,g,a,t,1,3,11,5,a,1,0.466947305,32,f,21,d,60.00791881,SNARC lie 2,2019_Apr_30_1358
7,lawyer_7.png,g,a,t,3,3,27,5,g,1,0.4669502373,31,m,21,d,60.02297006,SNARC lie 1,2019_Apr_30_1303
8,lawyer_8.png,a,g,t,2,2,18,6,g,1,0.4669868932,32,f,21,d,60.00791881,SNARC lie 2,2019_Apr_30_1358
7,lawyer_7.png,g,a,t,0,2,2,5,g,1,0.4669894592,1,f,27,d,59.90355943,SNARC lie 1,2019_Apr_01_1630
4,lawyer_4.png,a,g,t,0,2,2,3,g,1,0.4669934914,1,f,27,d,59.90355943,SNARC lie 1,2019_Apr_01_1630
1,lawyer_1.png,g,a,t,2,4,20,0,a,1,0.4670356456,22,f,22,d,60.02178155,SNARC lie 2,2019_Apr_18_1558
7,lawyer_7.png,g,a,t,4,2,34,5,g,1,0.4670374785,1,f,27,d,59.90355943,SNARC lie 1,2019_Apr_01_1630
9,lawyer_9.png,g,a,t,1,3,11,7,g,1,0.467046276,4,f,24,d,60.03340485,SNARC lie 2,2019_Apr_09_1700
2,lawyer_2.png,a,g,t,0,3,3,1,g,1,0.4670554399,32,f,21,d,60.00791881,SNARC lie 2,2019_Apr_30_1358
6,lawyer_6.png,a,g,t,2,1,17,4,a,1,0.4670561731,5,f,22,d,60.06486318,SNARC lie 1,2019_Apr_09_1752
3,lawyer_3.png,g,a,t,3,3,27,2,a,1,0.46706717,35,m,21,d,60.01808426,SNARC lie 1,2019_May_16_1301
2,lawyer_2.png,a,g,t,1,4,12,1,g,1,0.4670950286,32,f,21,d,60.00791881,SNARC lie 2,2019_Apr_30_1358
9,lawyer_9.png,g,a,t,0,3,3,7,g,1,0.4671041924,2,f,28,d,60.06102824,SNARC lie 2,2019_Apr_04_1721
9,lawyer_9.png,g,a,t,1,5,13,7,g,1,0.4671133565,3,f,20,d,60.01201092,SNARC lie 1,2019_Apr_09_1542
2,lawyer_2.png,a,g,t,4,2,34,1,a,1,0.4671445141,5,f,22,d,60.06486318,SNARC lie 1,2019_Apr_09_1752
6,lawyer_6.png,a,g,t,0,5,5,4,g,1,0.467196199,5,f,22,d,60.06486318,SNARC lie 1,2019_Apr_09_1752
2,lawyer_2.png,a,g,t,3,6,30,1,g,1,0.4672412858,32,f,21,d,60.00791881,SNARC lie 2,2019_Apr_30_1358
2,lawyer_2.png,a,g,t,3,6,30,1,a,1,0.4672775752,1,f,27,d,59.90355943,SNARC lie 1,2019_Apr_01_1630
6,lawyer_6.png,a,g,t,1,2,10,4,a,1,0.4672794079,5,f,22,d,60.06486318,SNARC lie 1,2019_Apr_09_1752
4,lawyer_4.png,a,g,t,0,7,7,3,g,1,0.4673175302,5,f,22,d,60.06486318,SNARC lie 1,2019_Apr_09_1752
4,lawyer_4.png,a,g,t,2,7,23,3,a,1,0.4673244948,1,f,27,d,59.90355943,SNARC lie 1,2019_Apr_01_1630
3,lawyer_3.png,g,a,t,2,7,23,2,a,1,0.4673336586,32,f,21,d,60.00791881,SNARC lie 2,2019_Apr_30_1358
3,lawyer_3.png,g,a,t,3,1,25,2,g,1,0.4673398903,5,f,22,d,60.06486318,SNARC lie 1,2019_Apr_09_1752
8,lawyer_8.png,a,g,t,4,0,32,6,g,1,0.467435929,7,f,24,d,60.00171555,SNARC lie 1,2019_Apr_10_1010
9,lawyer_9.png,g,a,t,0,7,7,7,g,1,0.4674883471,22,f,22,d,60.02178155,SNARC lie 2,2019_Apr_18_1558
2,lawyer_2.png,a,g,t,2,0,16,1,a,1,0.4674986107,1,f,27,d,59.90355943,SNARC lie 1,2019_Apr_01_1630
8,lawyer_8.png,a,g,t,2,3,19,6,g,1,0.4675140063,3,f,20,d,60.01201092,SNARC lie 1,2019_Apr_09_1542
2,lawyer_2.png,a,g,t,1,1,9,1,g,1,0.4675473632,1,f,27,d,59.90355943,SNARC lie 1,2019_Apr_01_1630
6,lawyer_6.png,a,g,t,3,7,31,4,a,1,0.4675506622,5,f,22,d,60.06486318,SNARC lie 1,2019_Apr_09_1752
3,lawyer_3.png,g,a,t,4,5,37,2,a,1,0.4675561606,14,m,21,d,60.00686277,SNARC lie 2,2019_Apr_17_1552
3,lawyer_3.png,g,a,t,0,4,4,2,a,1,0.4675565274,36,f,20,d,60.02508316,SNARC lie 2,2019_May_16_1508
8,lawyer_8.png,a,g,t,0,2,2,6,a,1,0.4675576268,34,f,23,s,60.01557549,SNARC lie 2,2019_May_16_1156
7,lawyer_7.png,g,a,t,0,4,4,5,g,1,0.4675576268,36,f,20,d,60.02508316,SNARC lie 2,2019_May_16_1508
1,lawyer_1.png,g,a,t,1,2,10,0,g,1,0.4675627586,23,f,24,d,60.01161484,SNARC lie 1,2019_Apr_18_1730
7,lawyer_7.png,g,a,t,3,3,27,5,g,1,0.4675627588,35,m,21,d,60.01808426,SNARC lie 1,2019_May_16_1301
8,lawyer_8.png,a,g,t,1,0,8,6,g,1,0.4675726558,5,f,22,d,60.06486318,SNARC lie 1,2019_Apr_09_1752
3,lawyer_3.png,g,a,t,4,5,37,2,a,1,0.4675774206,38,f,21,d,60.00791881,SNARC lie 2,2019_May_16_1737
2,lawyer_2.png,a,g,t,2,4,20,1,g,1,0.4675796204,35,m,21,d,60.01808426,SNARC lie 1,2019_May_16_1301
1,lawyer_1.png,g,a,t,0,5,5,0,a,1,0.4675821862,36,f,20,d,60.02508316,SNARC lie 2,2019_May_16_1508
7,lawyer_7.png,g,a,t,3,6,30,5,g,1,0.4675821865,23,f,24,d,60.01161484,SNARC lie 1,2019_Apr_18_1730
2,lawyer_2.png,a,g,t,3,2,26,1,a,1,0.4675884179,6,f,21,d,60.01676381,SNARC lie 2,2019_Apr_10_0911
8,lawyer_8.png,a,g,t,3,4,28,6,a,1,0.4675990482,7,f,24,d,60.00171555,SNARC lie 1,2019_Apr_10_1010
2,lawyer_2.png,a,g,t,2,5,21,1,g,1,0.4676001477,36,f,20,d,60.02508316,SNARC lie 2,2019_May_16_1508
1,lawyer_1.png,g,a,t,1,6,14,0,g,1,0.4676012475,9,m,27,d,60.0087107,SNARC lie 1,2019_Apr_10_1212
9,lawyer_9.png,g,a,t,0,3,3,7,a,1,0.467602347,38,f,21,d,60.00791881,SNARC lie 2,2019_May_16_1737
9,lawyer_9.png,g,a,t,3,1,25,7,a,1,0.4676023473,18,f,23,d,60.01702786,SNARC lie 2,2019_Apr_18_1207
1,lawyer_1.png,g,a,t,4,5,37,0,a,1,0.4676027137,25,m,19,s,60.01491534,SNARC lie 1,2019_Apr_24_1610
2,lawyer_2.png,a,g,t,3,6,30,1,a,1,0.4676060127,13,f,19,d,60.00092376,SNARC lie 1,2019_Apr_17_1458
7,lawyer_7.png,g,a,t,1,4,12,5,g,1,0.4676060127,11,f,21,d,60.03644348,SNARC lie 1,2019_Apr_10_1403
1,lawyer_1.png,g,a,t,4,0,32,0,g,1,0.467607479,7,f,24,d,60.00171555,SNARC lie 1,2019_Apr_10_1010
8,lawyer_8.png,a,g,t,2,3,19,6,g,1,0.4676085787,22,f,22,d,60.02178155,SNARC lie 2,2019_Apr_18_1558
4,lawyer_4.png,a,g,t,0,0,0,3,g,1,0.4676093119,36,f,20,d,60.02508316,SNARC lie 2,2019_May_16_1508
2,lawyer_2.png,a,g,t,4,3,35,1,a,1,0.4676096783,8,m,27,d,60.02468695,SNARC lie 2,2019_Apr_10_1125
4,lawyer_4.png,a,g,t,3,4,28,3,a,1,0.4676096784,35,m,21,d,60.01808426,SNARC lie 1,2019_May_16_1301
4,lawyer_4.png,a,g,t,1,4,12,3,a,1,0.4676107781,20,f,25,d,60.00527894,SNARC lie 2,2019_Apr_18_1410
4,lawyer_4.png,a,g,t,0,3,3,3,g,1,0.4676107783,30,m,26,d,60.02297006,SNARC lie 2,2019_Apr_30_1211
7,lawyer_7.png,g,a,t,1,1,9,5,g,1,0.4676115112,38,f,21,d,60.00791881,SNARC lie 2,2019_May_16_1737
2,lawyer_2.png,a,g,t,1,2,10,1,a,1,0.467614077,24,f,21,m,59.99393041,SNARC lie 2,2019_Apr_24_0942
6,lawyer_6.png,a,g,t,3,2,26,4,a,1,0.46761481,35,m,21,d,60.01808426,SNARC lie 1,2019_May_16_1301
8,lawyer_8.png,a,g,t,3,5,29,6,a,1,0.4676173762,31,m,21,d,60.02297006,SNARC lie 1,2019_Apr_30_1303
6,lawyer_6.png,a,g,t,3,7,31,4,a,1,0.4676184757,32,f,21,d,60.00791881,SNARC lie 2,2019_Apr_30_1358
9,lawyer_9.png,g,a,t,2,5,21,7,a,1,0.4676217746,20,f,25,d,60.00527894,SNARC lie 2,2019_Apr_18_1410
4,lawyer_4.png,a,g,t,3,2,26,3,g,1,0.4676217749,6,f,21,d,60.01676381,SNARC lie 2,2019_Apr_10_0911
3,lawyer_3.png,g,a,t,2,7,23,2,g,1,0.4676217749,21,f,20,d,60.02323421,SNARC lie 1,2019_Apr_18_1508
1,lawyer_1.png,g,a,t,3,2,26,0,g,1,0.4676221414,36,f,20,d,60.02508316,SNARC lie 2,2019_May_16_1508
4,lawyer_4.png,a,g,t,0,7,7,3,a,1,0.4676221416,12,m,24,d,60.00131965,SNARC lie 2,2019_Apr_17_1403
3,lawyer_3.png,g,a,t,4,1,33,2,g,1,0.4676239742,20,f,25,d,60.00527894,SNARC lie 2,2019_Apr_18_1410
4,lawyer_4.png,a,g,t,2,1,17,3,g,1,0.4676247074,20,f,25,d,60.00527894,SNARC lie 2,2019_Apr_18_1410
3,lawyer_3.png,g,a,t,4,4,36,2,g,1,0.4676250739,18,f,23,d,60.01702786,SNARC lie 2,2019_Apr_18_1207
1,lawyer_1.png,g,a,t,4,1,33,0,g,1,0.4676250739,26,f,24,d,60.01636775,SNARC lie 2,2019_Apr_24_1700
7,lawyer_7.png,g,a,t,4,2,34,5,g,1,0.4676254403,16,f,27,d,60.02680016,SNARC lie 2,2019_Apr_18_1009
1,lawyer_1.png,g,a,t,2,6,22,0,g,1,0.4676254406,14,m,21,d,60.00686277,SNARC lie 2,2019_Apr_17_1552
4,lawyer_4.png,a,g,t,4,1,33,3,a,1,0.4676269065,23,f,24,d,60.01161484,SNARC lie 1,2019_Apr_18_1730
4,lawyer_4.png,a,g,t,3,1,25,3,a,1,0.4676327715,30,m,26,d,60.02297006,SNARC lie 2,2019_Apr_30_1211
6,lawyer_6.png,a,g,t,3,4,28,4,g,1,0.4676335049,18,f,23,d,60.01702786,SNARC lie 2,2019_Apr_18_1207
4,lawyer_4.png,a,g,t,4,7,39,3,a,1,0.4676338714,37,m,24,d,60.1277463,SNARC lie 1,2019_May_16_1648
3,lawyer_3.png,g,a,t,4,2,34,2,a,1,0.4676346043,21,f,20,d,60.02323421,SNARC lie 1,2019_Apr_18_1508
4,lawyer_4.png,a,g,t,2,4,20,3,g,1,0.4676353375,15,f,19,d,60.03657565,SNARC lie 1,2019_Apr_17_1720
8,lawyer_8.png,a,g,t,2,3,19,6,a,1,0.4676357042,14,m,21,d,60.00686277,SNARC lie 2,2019_Apr_17_1552
3,lawyer_3.png,g,a,t,2,6,22,2,a,1,0.4676360707,6,f,21,d,60.01676381,SNARC lie 2,2019_Apr_10_0911
4,lawyer_4.png,a,g,t,2,3,19,3,a,1,0.4676371703,25,m,19,s,60.01491534,SNARC lie 1,2019_Apr_24_1610
8,lawyer_8.png,a,g,t,4,6,38,6,g,1,0.4676371703,21,f,20,d,60.02323421,SNARC lie 1,2019_Apr_18_1508
2,lawyer_2.png,a,g,t,4,3,35,1,a,1,0.4676386365,23,f,24,d,60.01161484,SNARC lie 1,2019_Apr_18_1730
4,lawyer_4.png,a,g,t,3,0,24,3,g,1,0.4676393694,36,f,20,d,60.02508316,SNARC lie 2,2019_May_16_1508
6,lawyer_6.png,a,g,t,1,6,14,4,g,1,0.4676401028,34,f,23,s,60.01557549,SNARC lie 2,2019_May_16_1156
7,lawyer_7.png,g,a,t,3,3,27,5,g,1,0.467640836,15,f,19,d,60.03657565,SNARC lie 1,2019_Apr_17_1720
8,lawyer_8.png,a,g,t,0,5,5,6,g,1,0.4676415692,17,f,26,d,60.03816113,SNARC lie 1,2019_Apr_18_1109
8,lawyer_8.png,a,g,t,3,2,26,6,g,1,0.4676415692,22,f,22,d,60.02178155,SNARC lie 2,2019_Apr_18_1558
7,lawyer_7.png,g,a,t,4,7,39,5,a,1,0.4676423022,21,f,20,d,60.02323421,SNARC lie 1,2019_Apr_18_1508
2,lawyer_2.png,a,g,t,1,1,9,1,a,1,0.4676434016,32,f,21,d,60.00791881,SNARC lie 2,2019_Apr_30_1358
8,lawyer_8.png,a,g,t,1,6,14,6,g,1,0.4676437685,33,f,20,d,60.02283803,SNARC lie 1,2019_Apr_30_1445
4,lawyer_4.png,a,g,t,1,5,13,3,g,1,0.4676445015,27,f,24,d,60.02257397,SNARC lie 1,2019_Apr_29_1114
3,lawyer_3.png,g,a,t,3,3,27,2,a,1,0.4676452347,17,f,26,d,60.03816113,SNARC lie 1,2019_Apr_18_1109
7,lawyer_7.png,g,a,t,0,1,1,5,a,1,0.467647434,25,m,19,s,60.01491534,SNARC lie 1,2019_Apr_24_1610
7,lawyer_7.png,g,a,t,1,2,10,5,a,1,0.46765,14,m,21,d,60.00686277,SNARC lie 2,2019_Apr_17_1552
7,lawyer_7.png,g,a,t,4,6,38,5,a,1,0.4676514661,17,f,26,d,60.03816113,SNARC lie 1,2019_Apr_18_1109
4,lawyer_4.png,a,g,t,3,5,29,3,a,1,0.4676518326,12,m,24,d,60.00131965,SNARC lie 2,2019_Apr_17_1403
6,lawyer_6.png,a,g,t,2,6,22,4,a,1,0.4676543986,37,m,24,d,60.1277463,SNARC lie 1,2019_May_16_1648
9,lawyer_9.png,g,a,t,0,3,3,7,a,1,0.4676558649,9,m,27,d,60.0087107,SNARC lie 1,2019_Apr_10_1212
8,lawyer_8.png,a,g,t,0,0,0,6,g,1,0.4676562315,20,f,25,d,60.00527894,SNARC lie 2,2019_Apr_18_1410
6,lawyer_6.png,a,g,t,1,7,15,4,g,1,0.4676562315,26,f,24,d,60.01636775,SNARC lie 2,2019_Apr_24_1700
3,lawyer_3.png,g,a,t,3,3,27,2,a,1,0.4676569647,14,m,21,d,60.00686277,SNARC lie 2,2019_Apr_17_1552
3,lawyer_3.png,g,a,t,0,3,3,2,a,1,0.4676573311,17,f,26,d,60.03816113,SNARC lie 1,2019_Apr_18_1109
6,lawyer_6.png,a,g,t,3,0,24,4,g,1,0.4676580641,26,f,24,d,60.01636775,SNARC lie 2,2019_Apr_24_1700
8,lawyer_8.png,a,g,t,0,7,7,6,g,1,0.4676587973,27,f,24,d,60.02257397,SNARC lie 1,2019_Apr_29_1114
2,lawyer_2.png,a,g,t,1,5,13,1,g,1,0.4676587973,29,m,20,d,60.00580693,SNARC lie 1,2019_Apr_30_1119
7,lawyer_7.png,g,a,t,2,3,19,5,a,1,0.4676642958,20,f,25,d,60.00527894,SNARC lie 2,2019_Apr_18_1410
2,lawyer_2.png,a,g,t,2,6,22,1,a,1,0.4676646623,15,f,19,d,60.03657565,SNARC lie 1,2019_Apr_17_1720
3,lawyer_3.png,g,a,t,0,0,0,2,a,1,0.4676653954,7,f,24,d,60.00171555,SNARC lie 1,2019_Apr_10_1010
2,lawyer_2.png,a,g,t,4,6,38,1,a,1,0.4676664951,19,f,19,d,60.02878139,SNARC lie 1,2019_Apr_18_1302
8,lawyer_8.png,a,g,t,1,7,15,6,g,1,0.4676664951,15,f,19,d,60.03657565,SNARC lie 1,2019_Apr_17_1720
7,lawyer_7.png,g,a,t,0,5,5,5,a,1,0.4676672283,26,f,24,d,60.01636775,SNARC lie 2,2019_Apr_24_1700
7,lawyer_7.png,g,a,t,2,3,19,5,a,1,0.4676675948,19,f,19,d,60.02878139,SNARC lie 1,2019_Apr_18_1302
8,lawyer_8.png,a,g,t,3,3,27,6,g,1,0.4676679613,21,f,20,d,60.02323421,SNARC lie 1,2019_Apr_18_1508
2,lawyer_2.png,a,g,t,4,0,32,1,a,1,0.467668328,30,m,26,d,60.02297006,SNARC lie 2,2019_Apr_30_1211
8,lawyer_8.png,a,g,t,2,0,16,6,g,1,0.4676686944,33,f,20,d,60.02283803,SNARC lie 1,2019_Apr_30_1445
9,lawyer_9.png,g,a,t,4,0,32,7,g,1,0.4676694276,11,f,21,d,60.03644348,SNARC lie 1,2019_Apr_10_1403
3,lawyer_3.png,g,a,t,1,3,11,2,a,1,0.4676694279,36,f,20,d,60.02508316,SNARC lie 2,2019_May_16_1508
8,lawyer_8.png,a,g,t,0,0,0,6,g,1,0.4676723599,15,f,19,d,60.03657565,SNARC lie 1,2019_Apr_17_1720
8,lawyer_8.png,a,g,t,4,3,35,6,a,1,0.4676727268,14,m,21,d,60.00686277,SNARC lie 2,2019_Apr_17_1552
1,lawyer_1.png,g,a,t,4,4,36,0,g,1,0.4676738263,14,m,21,d,60.00686277,SNARC lie 2,2019_Apr_17_1552
2,lawyer_2.png,a,g,t,2,0,16,1,g,1,0.4676738263,23,f,24,d,60.01161484,SNARC lie 1,2019_Apr_18_1730
4,lawyer_4.png,a,g,t,0,3,3,3,a,1,0.4676752924,24,f,21,m,59.99393041,SNARC lie 2,2019_Apr_24_0942
2,lawyer_2.png,a,g,t,0,1,1,1,g,1,0.4676760256,20,f,25,d,60.00527894,SNARC lie 2,2019_Apr_18_1410
4,lawyer_4.png,a,g,t,0,3,3,3,a,1,0.467677492,15,f,19,d,60.03657565,SNARC lie 1,2019_Apr_17_1720
4,lawyer_4.png,a,g,t,1,0,8,3,a,1,0.467677492,21,f,20,d,60.02323421,SNARC lie 1,2019_Apr_18_1508
8,lawyer_8.png,a,g,t,0,6,6,6,a,1,0.4676785916,18,f,23,d,60.01702786,SNARC lie 2,2019_Apr_18_1207
1,lawyer_1.png,g,a,t,2,1,17,0,a,1,0.467679325,37,m,24,d,60.1277463,SNARC lie 1,2019_May_16_1648
2,lawyer_2.png,a,g,t,0,4,4,1,g,1,0.467681524,9,m,27,d,60.0087107,SNARC lie 1,2019_Apr_10_1212
6,lawyer_6.png,a,g,t,4,2,34,4,a,1,0.4676818906,22,f,22,d,60.02178155,SNARC lie 2,2019_Apr_18_1558
8,lawyer_8.png,a,g,t,2,4,20,6,g,1,0.4676829902,8,m,27,d,60.02468695,SNARC lie 2,2019_Apr_10_1125
4,lawyer_4.png,a,g,t,1,3,11,3,g,1,0.4676829905,26,f,24,d,60.01636775,SNARC lie 2,2019_Apr_24_1700
7,lawyer_7.png,g,a,t,1,6,14,5,a,1,0.4676837234,22,f,22,d,60.02178155,SNARC lie 2,2019_Apr_18_1558
9,lawyer_9.png,g,a,t,1,0,8,7,a,1,0.4676859227,17,f,26,d,60.03816113,SNARC lie 1,2019_Apr_18_1109
1,lawyer_1.png,g,a,t,1,7,15,0,a,1,0.4676888552,7,f,24,d,60.00171555,SNARC lie 1,2019_Apr_10_1010
6,lawyer_6.png,a,g,t,2,0,16,4,a,1,0.4676895884,6,f,21,d,60.01676381,SNARC lie 2,2019_Apr_10_0911
1,lawyer_1.png,g,a,t,1,4,12,0,a,1,0.4676921542,12,m,24,d,60.00131965,SNARC lie 2,2019_Apr_17_1403
6,lawyer_6.png,a,g,t,0,0,0,4,g,1,0.4676932539,37,m,24,d,60.1277463,SNARC lie 1,2019_May_16_1648
9,lawyer_9.png,g,a,t,4,0,32,7,a,1,0.4676939873,25,m,19,s,60.01491534,SNARC lie 1,2019_Apr_24_1610
8,lawyer_8.png,a,g,t,1,5,13,6,g,1,0.4676976528,21,f,20,d,60.02323421,SNARC lie 1,2019_Apr_18_1508
2,lawyer_2.png,a,g,t,3,7,31,1,g,1,0.4676983858,8,m,27,d,60.02468695,SNARC lie 2,2019_Apr_10_1125
6,lawyer_6.png,a,g,t,0,3,3,4,a,1,0.4677005848,32,f,21,d,60.00791881,SNARC lie 2,2019_Apr_30_1358
2,lawyer_2.png,a,g,t,4,1,33,1,g,1,0.4677020514,21,f,20,d,60.02323421,SNARC lie 1,2019_Apr_18_1508
7,lawyer_7.png,g,a,t,1,7,15,5,a,1,0.4677035175,21,f,20,d,60.02323421,SNARC lie 1,2019_Apr_18_1508
8,lawyer_8.png,a,g,t,1,7,15,6,g,1,0.4677038842,8,m,27,d,60.02468695,SNARC lie 2,2019_Apr_10_1125
7,lawyer_7.png,g,a,t,1,7,15,5,g,1,0.4677042508,1,f,27,d,59.90355943,SNARC lie 1,2019_Apr_01_1630
2,lawyer_2.png,a,g,t,0,7,7,1,a,1,0.4677079164,8,m,27,d,60.02468695,SNARC lie 2,2019_Apr_10_1125
2,lawyer_2.png,a,g,t,0,3,3,1,a,1,0.4677082829,25,m,19,s,60.01491534,SNARC lie 1,2019_Apr_24_1610
9,lawyer_9.png,g,a,t,4,2,34,7,a,1,0.4677104822,15,f,19,d,60.03657565,SNARC lie 1,2019_Apr_17_1720
1,lawyer_1.png,g,a,t,2,7,23,0,a,1,0.4677126815,25,m,19,s,60.01491534,SNARC lie 1,2019_Apr_24_1610
4,lawyer_4.png,a,g,t,2,2,18,3,g,1,0.4677152475,25,m,19,s,60.01491534,SNARC lie 1,2019_Apr_24_1610
4,lawyer_4.png,a,g,t,4,7,39,3,g,1,0.4677200131,38,f,21,d,60.00791881,SNARC lie 2,2019_May_16_1737
9,lawyer_9.png,g,a,t,2,4,20,7,a,1,0.4677247778,33,f,20,d,60.02283803,SNARC lie 1,2019_Apr_30_1445
1,lawyer_1.png,g,a,t,4,3,35,0,a,1,0.4677313762,21,f,20,d,60.02323421,SNARC lie 1,2019_Apr_18_1508
9,lawyer_9.png,g,a,t,1,3,11,7,g,1,0.4677324758,8,m,27,d,60.02468695,SNARC lie 2,2019_Apr_10_1125
7,lawyer_7.png,g,a,t,0,6,6,5,g,1,0.4677376079,24,f,21,m,59.99393041,SNARC lie 2,2019_Apr_24_0942
6,lawyer_6.png,a,g,t,2,1,17,4,a,1,0.4677387073,15,f,19,d,60.03657565,SNARC lie 1,2019_Apr_17_1720
6,lawyer_6.png,a,g,t,3,0,24,4,a,1,0.4677398074,31,m,21,d,60.02297006,SNARC lie 1,2019_Apr_30_1303
1,lawyer_1.png,g,a,t,3,6,30,0,a,1,0.467745672,14,m,21,d,60.00686277,SNARC lie 2,2019_Apr_17_1552
3,lawyer_3.png,g,a,t,3,5,29,2,g,1,0.467748971,13,f,19,d,60.00092376,SNARC lie 1,2019_Apr_17_1458
9,lawyer_9.png,g,a,t,4,2,34,7,a,1,0.4677592347,7,f,24,d,60.00171555,SNARC lie 1,2019_Apr_10_1010
7,lawyer_7.png,g,a,t,4,3,35,5,g,1,0.4677621673,21,f,20,d,60.02323421,SNARC lie 1,2019_Apr_18_1508
3,lawyer_3.png,g,a,t,1,5,13,2,a,1,0.4677672992,7,f,24,d,60.00171555,SNARC lie 1,2019_Apr_10_1010
4,lawyer_4.png,a,g,t,0,0,0,3,g,1,0.4678006561,17,f,26,d,60.03816113,SNARC lie 1,2019_Apr_18_1109
7,lawyer_7.png,g,a,t,4,1,33,5,a,1,0.467804322,34,f,23,s,60.01557549,SNARC lie 2,2019_May_16_1156
2,lawyer_2.png,a,g,t,2,6,22,1,g,1,0.4678079872,27,f,24,d,60.02257397,SNARC lie 1,2019_Apr_29_1114
1,lawyer_1.png,g,a,t,3,5,29,0,a,1,0.4678387784,15,f,19,d,60.03657565,SNARC lie 1,2019_Apr_17_1720
1,lawyer_1.png,g,a,t,4,1,33,0,a,1,0.4679113571,13,f,19,d,60.00092376,SNARC lie 1,2019_Apr_17_1458
4,lawyer_4.png,a,g,t,4,0,32,3,g,1,0.467948013,30,m,26,d,60.02297006,SNARC lie 2,2019_Apr_30_1211
7,lawyer_7.png,g,a,t,0,4,4,5,a,1,0.4684344376,27,f,24,d,60.02257397,SNARC lie 1,2019_Apr_29_1114
9,lawyer_9.png,g,a,t,0,2,2,7,g,1,0.4833039353,21,f,20,d,60.02323421,SNARC lie 1,2019_Apr_18_1508
4,lawyer_4.png,a,g,t,1,2,10,3,a,1,0.4833138323,3,f,20,d,60.01201092,SNARC lie 1,2019_Apr_09_1542
7,lawyer_7.png,g,a,t,2,2,18,5,g,1,0.4834417617,3,f,20,d,60.01201092,SNARC lie 1,2019_Apr_09_1542
9,lawyer_9.png,g,a,t,2,6,22,7,g,1,0.4835491639,25,m,19,s,60.01491534,SNARC lie 1,2019_Apr_24_1610
1,lawyer_1.png,g,a,t,2,7,23,0,a,1,0.4835542955,3,f,20,d,60.01201092,SNARC lie 1,2019_Apr_09_1542
6,lawyer_6.png,a,g,t,1,6,14,4,a,1,0.4835546621,7,f,24,d,60.00171555,SNARC lie 1,2019_Apr_10_1010
2,lawyer_2.png,a,g,t,1,2,10,1,g,1,0.4835590608,3,f,20,d,60.01201092,SNARC lie 1,2019_Apr_09_1542
8,lawyer_8.png,a,g,t,3,5,29,6,g,1,0.4835616271,37,m,24,d,60.1277463,SNARC lie 1,2019_May_16_1648
2,lawyer_2.png,a,g,t,2,3,19,1,g,1,0.483563093,33,f,20,d,60.02283803,SNARC lie 1,2019_Apr_30_1445
7,lawyer_7.png,g,a,t,2,7,23,5,g,1,0.4835667587,36,f,20,d,60.02508316,SNARC lie 2,2019_May_16_1508
9,lawyer_9.png,g,a,t,3,4,28,7,g,1,0.4836331059,3,f,20,d,60.01201092,SNARC lie 1,2019_Apr_09_1542
6,lawyer_6.png,a,g,t,3,4,28,4,g,1,0.4837313439,5,f,22,d,60.06486318,SNARC lie 1,2019_Apr_09_1752
4,lawyer_4.png,a,g,t,3,0,24,3,a,1,0.4838559742,5,f,22,d,60.06486318,SNARC lie 1,2019_Apr_09_1752
9,lawyer_9.png,g,a,t,2,1,17,7,a,1,0.4838852991,5,f,22,d,60.06486318,SNARC lie 1,2019_Apr_09_1752
7,lawyer_7.png,g,a,t,0,4,4,5,a,1,0.4839318521,1,f,27,d,59.90355943,SNARC lie 1,2019_Apr_01_1630
1,lawyer_1.png,g,a,t,2,5,21,0,g,1,0.4839615434,5,f,22,d,60.06486318,SNARC lie 1,2019_Apr_09_1752
2,lawyer_2.png,a,g,t,0,7,7,1,a,1,0.4839666753,1,f,27,d,59.90355943,SNARC lie 1,2019_Apr_01_1630
9,lawyer_9.png,g,a,t,2,3,19,7,g,1,0.4839912349,5,f,22,d,60.06486318,SNARC lie 1,2019_Apr_09_1752
9,lawyer_9.png,g,a,t,0,5,5,7,a,1,0.4840029647,3,f,20,d,60.01201092,SNARC lie 1,2019_Apr_09_1542
1,lawyer_1.png,g,a,t,4,5,37,0,g,1,0.4840073634,5,f,22,d,60.06486318,SNARC lie 1,2019_Apr_09_1752
9,lawyer_9.png,g,a,t,0,3,3,7,g,1,0.4840113956,5,f,22,d,60.06486318,SNARC lie 1,2019_Apr_09_1752
3,lawyer_3.png,g,a,t,1,3,11,2,a,1,0.4840161609,3,f,20,d,60.01201092,SNARC lie 1,2019_Apr_09_1542
7,lawyer_7.png,g,a,t,0,6,6,5,a,1,0.4840289905,5,f,22,d,60.06486318,SNARC lie 1,2019_Apr_09_1752
1,lawyer_1.png,g,a,t,4,7,39,0,a,1,0.4841906434,5,f,22,d,60.06486318,SNARC lie 1,2019_Apr_09_1752
7,lawyer_7.png,g,a,t,0,6,6,5,g,1,0.484197608,5,f,22,d,60.06486318,SNARC lie 1,2019_Apr_09_1752
2,lawyer_2.png,a,g,t,2,1,17,1,a,1,0.4842097047,35,m,21,d,60.01808426,SNARC lie 1,2019_May_16_1301
4,lawyer_4.png,a,g,t,1,6,14,3,a,1,0.4842111707,1,f,27,d,59.90355943,SNARC lie 1,2019_Apr_01_1630
2,lawyer_2.png,a,g,t,2,0,16,1,a,1,0.4842210677,12,m,24,d,60.00131965,SNARC lie 2,2019_Apr_17_1403
6,lawyer_6.png,a,g,t,0,6,6,4,a,1,0.4842210677,29,m,20,d,60.00580693,SNARC lie 1,2019_Apr_30_1119
3,lawyer_3.png,g,a,t,3,6,30,2,g,1,0.4842283991,14,m,21,d,60.00686277,SNARC lie 2,2019_Apr_17_1552
1,lawyer_1.png,g,a,t,4,7,39,0,a,1,0.4842313315,4,f,24,d,60.03340485,SNARC lie 2,2019_Apr_09_1700
2,lawyer_2.png,a,g,t,3,7,31,1,a,1,0.4842382958,36,f,20,d,60.02508316,SNARC lie 2,2019_May_16_1508
1,lawyer_1.png,g,a,t,4,3,35,0,a,1,0.4842401291,36,f,20,d,60.02508316,SNARC lie 2,2019_May_16_1508
2,lawyer_2.png,a,g,t,1,3,11,1,g,1,0.4842474601,9,m,27,d,60.0087107,SNARC lie 1,2019_Apr_10_1212
7,lawyer_7.png,g,a,t,4,4,36,5,g,1,0.4842492929,27,f,24,d,60.02257397,SNARC lie 1,2019_Apr_29_1114
8,lawyer_8.png,a,g,t,2,2,18,6,a,1,0.4842500263,35,m,21,d,60.01808426,SNARC lie 1,2019_May_16_1301
7,lawyer_7.png,g,a,t,1,4,12,5,a,1,0.4842547913,11,f,21,d,60.03644348,SNARC lie 1,2019_Apr_10_1403
8,lawyer_8.png,a,g,t,0,0,0,6,g,1,0.4842558909,9,m,27,d,60.0087107,SNARC lie 1,2019_Apr_10_1212
8,lawyer_8.png,a,g,t,3,2,26,6,a,1,0.4842562575,22,f,22,d,60.02178155,SNARC lie 2,2019_Apr_18_1558
9,lawyer_9.png,g,a,t,3,2,26,7,g,1,0.4842595565,15,f,19,d,60.03657565,SNARC lie 1,2019_Apr_17_1720
9,lawyer_9.png,g,a,t,0,1,1,7,g,1,0.4842617558,23,f,24,d,60.01161484,SNARC lie 1,2019_Apr_18_1730
9,lawyer_9.png,g,a,t,3,1,25,7,a,1,0.4842635887,29,m,20,d,60.00580693,SNARC lie 1,2019_Apr_30_1119
3,lawyer_3.png,g,a,t,0,6,6,2,g,1,0.4842639554,14,m,21,d,60.00686277,SNARC lie 2,2019_Apr_17_1552
1,lawyer_1.png,g,a,t,3,4,28,0,a,1,0.4842654216,9,m,27,d,60.0087107,SNARC lie 1,2019_Apr_10_1212
2,lawyer_2.png,a,g,t,1,5,13,1,g,1,0.48427092,25,m,19,s,60.01491534,SNARC lie 1,2019_Apr_24_1610
1,lawyer_1.png,g,a,t,2,7,23,0,a,1,0.4842712865,36,f,20,d,60.02508316,SNARC lie 2,2019_May_16_1508
6,lawyer_6.png,a,g,t,1,6,14,4,g,1,0.4842723862,25,m,19,s,60.01491534,SNARC lie 1,2019_Apr_24_1610
6,lawyer_6.png,a,g,t,2,3,19,4,a,1,0.4842738523,35,m,21,d,60.01808426,SNARC lie 1,2019_May_16_1301
3,lawyer_3.png,g,a,t,4,7,39,2,a,1,0.4842749522,24,f,21,m,59.99393041,SNARC lie 2,2019_Apr_24_0942
1,lawyer_1.png,g,a,t,3,7,31,0,g,1,0.4842753187,21,f,20,d,60.02323421,SNARC lie 1,2019_Apr_18_1508
1,lawyer_1.png,g,a,t,2,2,18,0,g,1,0.4842771515,7,f,24,d,60.00171555,SNARC lie 1,2019_Apr_10_1010
1,lawyer_1.png,g,a,t,0,6,6,0,a,1,0.4842778845,18,f,23,d,60.01702786,SNARC lie 2,2019_Apr_18_1207
9,lawyer_9.png,g,a,t,3,4,28,7,g,1,0.4842786177,21,f,20,d,60.02323421,SNARC lie 1,2019_Apr_18_1508
8,lawyer_8.png,a,g,t,2,2,18,6,a,1,0.4842797173,32,f,21,d,60.00791881,SNARC lie 2,2019_Apr_30_1358
2,lawyer_2.png,a,g,t,4,7,39,1,a,1,0.4842804503,36,f,20,d,60.02508316,SNARC lie 2,2019_May_16_1508
8,lawyer_8.png,a,g,t,1,2,10,6,a,1,0.4842811835,12,m,24,d,60.00131965,SNARC lie 2,2019_Apr_17_1403
9,lawyer_9.png,g,a,t,0,3,3,7,a,1,0.4842819166,25,m,19,s,60.01491534,SNARC lie 1,2019_Apr_24_1610
6,lawyer_6.png,a,g,t,0,4,4,4,a,1,0.4842819166,35,m,21,d,60.01808426,SNARC lie 1,2019_May_16_1301
4,lawyer_4.png,a,g,t,1,4,12,3,a,1,0.4842819168,9,m,27,d,60.0087107,SNARC lie 1,2019_Apr_10_1212
7,lawyer_7.png,g,a,t,2,0,16,5,g,1,0.4842826501,25,m,19,s,60.01491534,SNARC lie 1,2019_Apr_24_1610
2,lawyer_2.png,a,g,t,4,2,34,1,a,1,0.4842837495,18,f,23,d,60.01702786,SNARC lie 2,2019_Apr_18_1207
8,lawyer_8.png,a,g,t,3,6,30,6,g,1,0.484284116,34,f,23,s,60.01557549,SNARC lie 2,2019_May_16_1156
4,lawyer_4.png,a,g,t,3,3,27,3,g,1,0.4842852158,27,f,24,d,60.02257397,SNARC lie 1,2019_Apr_29_1114
7,lawyer_7.png,g,a,t,1,2,10,5,a,1,0.4842877816,36,f,20,d,60.02508316,SNARC lie 2,2019_May_16_1508
4,lawyer_4.png,a,g,t,4,0,32,3,a,1,0.4842888813,6,f,21,d,60.01676381,SNARC lie 2,2019_Apr_10_0911
9,lawyer_9.png,g,a,t,2,4,20,7,g,1,0.4842914473,32,f,21,d,60.00791881,SNARC lie 2,2019_Apr_30_1358
3,lawyer_3.png,g,a,t,3,0,24,2,g,1,0.4842932802,36,f,20,d,60.02508316,SNARC lie 2,2019_May_16_1508
9,lawyer_9.png,g,a,t,3,5,29,7,g,1,0.4842936466,8,m,27,d,60.02468695,SNARC lie 2,2019_Apr_10_1125
2,lawyer_2.png,a,g,t,2,2,18,1,g,1,0.4842943798,20,f,25,d,60.00527894,SNARC lie 2,2019_Apr_18_1410
1,lawyer_1.png,g,a,t,4,1,33,0,g,1,0.4842943798,25,m,19,s,60.01491534,SNARC lie 1,2019_Apr_24_1610
2,lawyer_2.png,a,g,t,4,2,34,1,a,1,0.4842965791,25,m,19,s,60.01491534,SNARC lie 1,2019_Apr_24_1610
8,lawyer_8.png,a,g,t,4,3,35,6,g,1,0.4842965791,8,m,27,d,60.02468695,SNARC lie 2,2019_Apr_10_1125
1,lawyer_1.png,g,a,t,2,4,20,0,a,1,0.4842973122,1,f,27,d,59.90355943,SNARC lie 1,2019_Apr_01_1630
3,lawyer_3.png,g,a,t,4,3,35,2,g,1,0.4842991451,6,f,21,d,60.01676381,SNARC lie 2,2019_Apr_10_0911
9,lawyer_9.png,g,a,t,1,5,13,7,g,1,0.4843002446,32,f,21,d,60.00791881,SNARC lie 2,2019_Apr_30_1358
9,lawyer_9.png,g,a,t,0,4,4,7,g,1,0.4843002447,9,m,27,d,60.0087107,SNARC lie 1,2019_Apr_10_1212
7,lawyer_7.png,g,a,t,4,1,33,5,g,1,0.4843002448,14,m,21,d,60.00686277,SNARC lie 2,2019_Apr_17_1552
3,lawyer_3.png,g,a,t,4,2,34,2,g,1,0.4843006112,7,f,24,d,60.00171555,SNARC lie 1,2019_Apr_10_1010
7,lawyer_7.png,g,a,t,0,5,5,5,a,1,0.4843013445,23,f,24,d,60.01161484,SNARC lie 1,2019_Apr_18_1730
1,lawyer_1.png,g,a,t,1,3,11,0,a,1,0.4843017105,38,f,21,d,60.00791881,SNARC lie 2,2019_May_16_1737
9,lawyer_9.png,g,a,t,4,0,32,7,a,1,0.484301711,14,m,21,d,60.00686277,SNARC lie 2,2019_Apr_17_1552
1,lawyer_1.png,g,a,t,2,1,17,0,a,1,0.4843020774,14,m,21,d,60.00686277,SNARC lie 2,2019_Apr_17_1552
2,lawyer_2.png,a,g,t,3,4,28,1,g,1,0.4843020774,27,f,24,d,60.02257397,SNARC lie 1,2019_Apr_29_1114
3,lawyer_3.png,g,a,t,3,0,24,2,a,1,0.4843024442,22,f,22,d,60.02178155,SNARC lie 2,2019_Apr_18_1558
1,lawyer_1.png,g,a,t,1,2,10,0,a,1,0.4843024442,25,m,19,s,60.01491534,SNARC lie 1,2019_Apr_24_1610
1,lawyer_1.png,g,a,t,1,2,10,0,a,1,0.4843039103,31,m,21,d,60.02297006,SNARC lie 1,2019_Apr_30_1303
7,lawyer_7.png,g,a,t,1,4,12,5,g,1,0.484304277,23,f,24,d,60.01161484,SNARC lie 1,2019_Apr_18_1730
9,lawyer_9.png,g,a,t,0,7,7,7,g,1,0.4843046432,37,m,24,d,60.1277463,SNARC lie 1,2019_May_16_1648
2,lawyer_2.png,a,g,t,4,4,36,1,a,1,0.4843061101,38,f,21,d,60.00791881,SNARC lie 2,2019_May_16_1737
3,lawyer_3.png,g,a,t,1,3,11,2,a,1,0.4843090421,15,f,19,d,60.03657565,SNARC lie 1,2019_Apr_17_1720
8,lawyer_8.png,a,g,t,0,5,5,6,g,1,0.4843105082,38,f,21,d,60.00791881,SNARC lie 2,2019_May_16_1737
8,lawyer_8.png,a,g,t,4,6,38,6,a,1,0.4843105085,17,f,26,d,60.03816113,SNARC lie 1,2019_Apr_18_1109
6,lawyer_6.png,a,g,t,1,2,10,4,g,1,0.4843105085,20,f,25,d,60.00527894,SNARC lie 2,2019_Apr_18_1410
8,lawyer_8.png,a,g,t,2,7,23,6,a,1,0.4843108747,34,f,23,s,60.01557549,SNARC lie 2,2019_May_16_1156
2,lawyer_2.png,a,g,t,2,4,20,1,g,1,0.4843112417,25,m,19,s,60.01491534,SNARC lie 1,2019_Apr_24_1610
2,lawyer_2.png,a,g,t,4,1,33,1,a,1,0.4843123411,27,f,24,d,60.02257397,SNARC lie 1,2019_Apr_29_1114
2,lawyer_2.png,a,g,t,1,7,15,1,g,1,0.4843123411,14,m,21,d,60.00686277,SNARC lie 2,2019_Apr_17_1552
9,lawyer_9.png,g,a,t,1,0,8,7,a,1,0.4843127076,33,f,20,d,60.02283803,SNARC lie 1,2019_Apr_30_1445
6,lawyer_6.png,a,g,t,2,2,18,4,g,1,0.4843138075,7,f,24,d,60.00171555,SNARC lie 1,2019_Apr_10_1010
1,lawyer_1.png,g,a,t,1,1,9,0,g,1,0.4843149073,36,f,20,d,60.02508316,SNARC lie 2,2019_May_16_1508
4,lawyer_4.png,a,g,t,2,2,18,3,a,1,0.4843152736,6,f,21,d,60.01676381,SNARC lie 2,2019_Apr_10_0911
7,lawyer_7.png,g,a,t,2,2,18,5,a,1,0.4843152736,15,f,19,d,60.03657565,SNARC lie 1,2019_Apr_17_1720
4,lawyer_4.png,a,g,t,3,7,31,3,g,1,0.4843171064,14,m,21,d,60.00686277,SNARC lie 2,2019_Apr_17_1552
6,lawyer_6.png,a,g,t,0,0,0,4,g,1,0.4843171064,18,f,23,d,60.01702786,SNARC lie 2,2019_Apr_18_1207
1,lawyer_1.png,g,a,t,3,0,24,0,g,1,0.4843178396,17,f,26,d,60.03816113,SNARC lie 1,2019_Apr_18_1109
3,lawyer_3.png,g,a,t,0,3,3,2,a,1,0.4843182061,29,m,20,d,60.00580693,SNARC lie 1,2019_Apr_30_1119
4,lawyer_4.png,a,g,t,0,6,6,3,g,1,0.4843193059,11,f,21,d,60.03644348,SNARC lie 1,2019_Apr_10_1403
8,lawyer_8.png,a,g,t,4,1,33,6,g,1,0.4843204054,33,f,20,d,60.02283803,SNARC lie 1,2019_Apr_30_1445
2,lawyer_2.png,a,g,t,1,0,8,1,a,1,0.4843207721,19,f,19,d,60.02878139,SNARC lie 1,2019_Apr_18_1302
2,lawyer_2.png,a,g,t,3,3,27,1,g,1,0.4843218718,13,f,19,d,60.00092376,SNARC lie 1,2019_Apr_17_1458
3,lawyer_3.png,g,a,t,4,5,37,2,a,1,0.4843222382,30,m,26,d,60.02297006,SNARC lie 2,2019_Apr_30_1211
1,lawyer_1.png,g,a,t,2,0,16,0,g,1,0.4843226047,18,f,23,d,60.01702786,SNARC lie 2,2019_Apr_18_1207
6,lawyer_6.png,a,g,t,3,5,29,4,g,1,0.4843229712,31,m,21,d,60.02297006,SNARC lie 1,2019_Apr_30_1303
9,lawyer_9.png,g,a,t,1,1,9,7,g,1,0.4843233381,33,f,20,d,60.02283803,SNARC lie 1,2019_Apr_30_1445
6,lawyer_6.png,a,g,t,2,3,19,4,g,1,0.4843237046,30,m,26,d,60.02297006,SNARC lie 2,2019_Apr_30_1211
2,lawyer_2.png,a,g,t,3,4,28,1,g,1,0.4843244378,17,f,26,d,60.03816113,SNARC lie 1,2019_Apr_18_1109
7,lawyer_7.png,g,a,t,0,1,1,5,a,1,0.484325537,30,m,26,d,60.02297006,SNARC lie 2,2019_Apr_30_1211
7,lawyer_7.png,g,a,t,2,0,16,5,g,1,0.484325537,32,f,21,d,60.00791881,SNARC lie 2,2019_Apr_30_1358
3,lawyer_3.png,g,a,t,4,3,35,2,g,1,0.4843255375,35,m,21,d,60.01808426,SNARC lie 1,2019_May_16_1301
6,lawyer_6.png,a,g,t,2,6,22,4,a,1,0.4843259039,30,m,26,d,60.02297006,SNARC lie 2,2019_Apr_30_1211
8,lawyer_8.png,a,g,t,2,6,22,6,a,1,0.4843299359,17,f,26,d,60.03816113,SNARC lie 1,2019_Apr_18_1109
9,lawyer_9.png,g,a,t,1,1,9,7,a,1,0.4843332353,35,m,21,d,60.01808426,SNARC lie 1,2019_May_16_1301
3,lawyer_3.png,g,a,t,0,3,3,2,a,1,0.4843343347,20,f,25,d,60.00527894,SNARC lie 2,2019_Apr_18_1410
6,lawyer_6.png,a,g,t,3,6,30,4,a,1,0.484335801,9,m,27,d,60.0087107,SNARC lie 1,2019_Apr_10_1212
4,lawyer_4.png,a,g,t,4,5,37,3,a,1,0.4843358011,15,f,19,d,60.03657565,SNARC lie 1,2019_Apr_17_1720
8,lawyer_8.png,a,g,t,1,6,14,6,g,1,0.4843361676,16,f,27,d,60.02680016,SNARC lie 2,2019_Apr_18_1009
9,lawyer_9.png,g,a,t,1,1,9,7,g,1,0.4843361676,19,f,19,d,60.02878139,SNARC lie 1,2019_Apr_18_1302
4,lawyer_4.png,a,g,t,4,3,35,3,g,1,0.4843365343,20,f,25,d,60.00527894,SNARC lie 2,2019_Apr_18_1410
1,lawyer_1.png,g,a,t,2,4,20,0,g,1,0.4843387335,9,m,27,d,60.0087107,SNARC lie 1,2019_Apr_10_1212
3,lawyer_3.png,g,a,t,1,1,9,2,g,1,0.4843387336,26,f,24,d,60.01636775,SNARC lie 2,2019_Apr_24_1700
6,lawyer_6.png,a,g,t,2,6,22,4,a,1,0.4843394668,27,f,24,d,60.02257397,SNARC lie 1,2019_Apr_29_1114
2,lawyer_2.png,a,g,t,3,6,30,1,g,1,0.484339833,22,f,22,d,60.02178155,SNARC lie 2,2019_Apr_18_1558
4,lawyer_4.png,a,g,t,0,5,5,3,a,1,0.4843405662,28,f,21,d,60.03657565,SNARC lie 2,2019_Apr_30_0939
8,lawyer_8.png,a,g,t,3,7,31,6,g,1,0.4843409329,15,f,19,d,60.03657565,SNARC lie 1,2019_Apr_17_1720
1,lawyer_1.png,g,a,t,3,7,31,0,g,1,0.4843412994,14,m,21,d,60.00686277,SNARC lie 2,2019_Apr_17_1552
6,lawyer_6.png,a,g,t,4,0,32,4,a,1,0.4843420326,15,f,19,d,60.03657565,SNARC lie 1,2019_Apr_17_1720
7,lawyer_7.png,g,a,t,4,3,35,5,g,1,0.4843423991,37,m,24,d,60.1277463,SNARC lie 1,2019_May_16_1648
2,lawyer_2.png,a,g,t,2,3,19,1,g,1,0.4843464312,29,m,20,d,60.00580693,SNARC lie 1,2019_Apr_30_1119
9,lawyer_9.png,g,a,t,0,1,1,7,g,1,0.4843500967,18,f,23,d,60.01702786,SNARC lie 2,2019_Apr_18_1207
6,lawyer_6.png,a,g,t,0,3,3,4,g,1,0.4843515632,7,f,24,d,60.00171555,SNARC lie 1,2019_Apr_10_1010
3,lawyer_3.png,g,a,t,1,0,8,2,a,1,0.4843515633,38,f,21,d,60.00791881,SNARC lie 2,2019_May_16_1737
7,lawyer_7.png,g,a,t,2,0,16,5,a,1,0.4843526627,22,f,22,d,60.02178155,SNARC lie 2,2019_Apr_18_1558
8,lawyer_8.png,a,g,t,2,0,16,6,g,1,0.4843541291,20,f,25,d,60.00527894,SNARC lie 2,2019_Apr_18_1410
9,lawyer_9.png,g,a,t,4,6,38,7,g,1,0.4843566949,13,f,19,d,60.00092376,SNARC lie 1,2019_Apr_17_1458
2,lawyer_2.png,a,g,t,4,7,39,1,a,1,0.4843577947,24,f,21,m,59.99393041,SNARC lie 2,2019_Apr_24_0942
2,lawyer_2.png,a,g,t,1,2,10,1,g,1,0.4843618267,19,f,19,d,60.02878139,SNARC lie 1,2019_Apr_18_1302
2,lawyer_2.png,a,g,t,4,2,34,1,a,1,0.4843621933,9,m,27,d,60.0087107,SNARC lie 1,2019_Apr_10_1212
1,lawyer_1.png,g,a,t,1,4,12,0,a,1,0.4843629268,30,m,26,d,60.02297006,SNARC lie 2,2019_Apr_30_1211
2,lawyer_2.png,a,g,t,2,0,16,1,g,1,0.4843636595,26,f,24,d,60.01636775,SNARC lie 2,2019_Apr_24_1700
4,lawyer_4.png,a,g,t,1,2,10,3,a,1,0.4843654924,11,f,21,d,60.03644348,SNARC lie 1,2019_Apr_10_1403
4,lawyer_4.png,a,g,t,0,6,6,3,g,1,0.4843676918,8,m,27,d,60.02468695,SNARC lie 2,2019_Apr_10_1125
4,lawyer_4.png,a,g,t,3,0,24,3,g,1,0.484372457,35,m,21,d,60.01808426,SNARC lie 1,2019_May_16_1301
8,lawyer_8.png,a,g,t,4,3,35,6,g,1,0.4843728235,35,m,21,d,60.01808426,SNARC lie 1,2019_May_16_1301
2,lawyer_2.png,a,g,t,2,0,16,1,g,1,0.4843750229,7,f,24,d,60.00171555,SNARC lie 1,2019_Apr_10_1010
8,lawyer_8.png,a,g,t,3,4,28,6,g,1,0.4843812543,28,f,21,d,60.03657565,SNARC lie 2,2019_Apr_30_0939
1,lawyer_1.png,g,a,t,1,7,15,0,g,1,0.4843819875,8,m,27,d,60.02468695,SNARC lie 2,2019_Apr_10_1125
4,lawyer_4.png,a,g,t,4,2,34,3,g,1,0.4843830873,8,m,27,d,60.02468695,SNARC lie 2,2019_Apr_10_1125
3,lawyer_3.png,g,a,t,1,5,13,2,g,1,0.4843922512,11,f,21,d,60.03644348,SNARC lie 1,2019_Apr_10_1403
9,lawyer_9.png,g,a,t,2,3,19,7,a,1,0.4843944507,25,m,19,s,60.01491534,SNARC lie 1,2019_Apr_24_1610
2,lawyer_2.png,a,g,t,3,0,24,1,a,1,0.4844006819,26,f,24,d,60.01636775,SNARC lie 2,2019_Apr_24_1700
6,lawyer_6.png,a,g,t,0,4,4,4,a,1,0.4844032479,18,f,23,d,60.01702786,SNARC lie 2,2019_Apr_18_1207
1,lawyer_1.png,g,a,t,3,6,30,0,g,1,0.4844098461,18,f,23,d,60.01702786,SNARC lie 2,2019_Apr_18_1207
9,lawyer_9.png,g,a,t,3,2,26,7,g,1,0.4844138783,7,f,24,d,60.00171555,SNARC lie 1,2019_Apr_10_1010
9,lawyer_9.png,g,a,t,4,4,36,7,g,1,0.484447602,15,f,19,d,60.03657565,SNARC lie 1,2019_Apr_17_1720
9,lawyer_9.png,g,a,t,0,5,5,7,g,1,0.4844549329,17,f,26,d,60.03816113,SNARC lie 1,2019_Apr_18_1109
6,lawyer_6.png,a,g,t,4,1,33,4,g,1,0.4844626305,38,f,21,d,60.00791881,SNARC lie 2,2019_May_16_1737
2,lawyer_2.png,a,g,t,2,5,21,1,g,1,0.4844648298,38,f,21,d,60.00791881,SNARC lie 2,2019_May_16_1737
8,lawyer_8.png,a,g,t,0,2,2,6,g,1,0.4845330103,12,m,24,d,60.00131965,SNARC lie 2,2019_Apr_17_1403
8,lawyer_8.png,a,g,t,1,3,11,6,g,1,0.4847375506,23,f,24,d,60.01161484,SNARC lie 1,2019_Apr_18_1730
8,lawyer_8.png,a,g,t,2,4,20,6,g,1,0.4849054348,30,m,26,d,60.02297006,SNARC lie 2,2019_Apr_30_1211
4,lawyer_4.png,a,g,t,2,1,17,3,g,1,0.4849959752,33,f,20,d,60.02283803,SNARC lie 1,2019_Apr_30_1445
8,lawyer_8.png,a,g,t,0,6,6,6,a,1,0.4998504436,3,f,20,d,60.01201092,SNARC lie 1,2019_Apr_09_1542
7,lawyer_7.png,g,a,t,2,3,19,5,a,1,0.5000626817,32,f,21,d,60.00791881,SNARC lie 2,2019_Apr_30_1358
6,lawyer_6.png,a,g,t,0,6,6,4,g,1,0.500107035,32,f,21,d,60.00791881,SNARC lie 2,2019_Apr_30_1358
1,lawyer_1.png,g,a,t,0,2,2,0,g,1,0.5001444245,3,f,20,d,60.01201092,SNARC lie 1,2019_Apr_09_1542
7,lawyer_7.png,g,a,t,4,7,39,5,g,1,0.5001484568,25,m,19,s,60.01491534,SNARC lie 1,2019_Apr_24_1610
7,lawyer_7.png,g,a,t,1,7,15,5,g,1,0.5001836466,35,m,21,d,60.01808426,SNARC lie 1,2019_May_16_1301
1,lawyer_1.png,g,a,t,2,5,21,0,a,1,0.500208206,30,m,26,d,60.02297006,SNARC lie 2,2019_Apr_30_1211
9,lawyer_9.png,g,a,t,2,3,19,7,a,1,0.5002137045,36,f,20,d,60.02508316,SNARC lie 2,2019_May_16_1508
6,lawyer_6.png,a,g,t,2,2,18,4,g,1,0.5002378975,38,f,21,d,60.00791881,SNARC lie 2,2019_May_16_1737
6,lawyer_6.png,a,g,t,2,3,19,4,a,1,0.5002386305,31,m,21,d,60.02297006,SNARC lie 1,2019_Apr_30_1303
2,lawyer_2.png,a,g,t,0,7,7,1,a,1,0.5002408298,31,m,21,d,60.02297006,SNARC lie 1,2019_Apr_30_1303
4,lawyer_4.png,a,g,t,2,1,17,3,a,1,0.5002551256,32,f,21,d,60.00791881,SNARC lie 2,2019_Apr_30_1358
6,lawyer_6.png,a,g,t,4,6,38,4,a,1,0.5002591577,23,f,24,d,60.01161484,SNARC lie 1,2019_Apr_18_1730
8,lawyer_8.png,a,g,t,1,1,9,6,g,1,0.5002712542,32,f,21,d,60.00791881,SNARC lie 2,2019_Apr_30_1358
7,lawyer_7.png,g,a,t,1,1,9,5,a,1,0.5002727206,25,m,19,s,60.01491534,SNARC lie 1,2019_Apr_24_1610
2,lawyer_2.png,a,g,t,3,5,29,1,g,1,0.5002782189,5,f,22,d,60.06486318,SNARC lie 1,2019_Apr_09_1752
4,lawyer_4.png,a,g,t,0,7,7,3,a,1,0.5002789521,18,f,23,d,60.01702786,SNARC lie 2,2019_Apr_18_1207
6,lawyer_6.png,a,g,t,3,7,31,4,g,1,0.5002899487,37,m,24,d,60.1277463,SNARC lie 1,2019_May_16_1648
9,lawyer_9.png,g,a,t,3,4,28,7,g,1,0.5003401675,1,f,27,d,59.90355943,SNARC lie 1,2019_Apr_01_1630
9,lawyer_9.png,g,a,t,3,0,24,7,g,1,0.5004211771,4,f,24,d,60.03340485,SNARC lie 2,2019_Apr_09_1700
3,lawyer_3.png,g,a,t,2,6,22,2,g,1,0.5004314409,1,f,27,d,59.90355943,SNARC lie 1,2019_Apr_01_1630
7,lawyer_7.png,g,a,t,3,1,25,5,g,1,0.5004549007,1,f,27,d,59.90355943,SNARC lie 1,2019_Apr_01_1630
3,lawyer_3.png,g,a,t,0,0,0,2,g,1,0.5004691965,1,f,27,d,59.90355943,SNARC lie 1,2019_Apr_01_1630
9,lawyer_9.png,g,a,t,3,2,26,7,a,1,0.5005040197,3,f,20,d,60.01201092,SNARC lie 1,2019_Apr_09_1542
7,lawyer_7.png,g,a,t,2,5,21,5,a,1,0.5005109843,5,f,22,d,60.06486318,SNARC lie 1,2019_Apr_09_1752
6,lawyer_6.png,a,g,t,2,4,20,4,g,1,0.5005707336,3,f,20,d,60.01201092,SNARC lie 1,2019_Apr_09_1542
3,lawyer_3.png,g,a,t,1,3,11,2,a,1,0.5005835631,5,f,22,d,60.06486318,SNARC lie 1,2019_Apr_09_1752
3,lawyer_3.png,g,a,t,3,7,31,2,g,1,0.5006447787,4,f,24,d,60.03340485,SNARC lie 2,2019_Apr_09_1700
6,lawyer_6.png,a,g,t,1,4,12,4,g,1,0.5006818011,5,f,22,d,60.06486318,SNARC lie 1,2019_Apr_09_1752
3,lawyer_3.png,g,a,t,1,0,8,2,g,1,0.5007591454,5,f,22,d,60.06486318,SNARC lie 1,2019_Apr_09_1752
7,lawyer_7.png,g,a,t,0,6,6,5,a,1,0.5007749074,12,m,24,d,60.00131965,SNARC lie 2,2019_Apr_17_1403
9,lawyer_9.png,g,a,t,4,2,34,7,a,1,0.5008144958,3,f,20,d,60.01201092,SNARC lie 1,2019_Apr_09_1542
