numbers,stimuli,correctanswer,correctanswer2,condition,trials_2.thisRepN,trials_2.thisTrialN,trials_2.thisN,trials_2.thisIndex,key,accuracy,RTs,participant,gender,age,handedness,frameRate,expName,date
3,lawyer_3.png,g,a,t,0,3,3,10,g,1,0.001436914317,20,f,25,d,60.00527894,SNARC lie 2,2019_Apr_18_1410
4,lawyer_4.png,a,g,t,4,3,99,11,a,1,0.01774039352,20,f,25,d,60.00527894,SNARC lie 2,2019_Apr_18_1410
6,lawyer_6.png,a,g,t,1,14,38,12,a,1,0.01777631626,20,f,25,d,60.00527894,SNARC lie 2,2019_Apr_18_1410
8,cop_8.png,g,a,l,2,10,58,22,g,1,0.0179060786,20,f,25,d,60.00527894,SNARC lie 2,2019_Apr_18_1410
7,lawyer_7.png,g,a,t,3,4,76,5,g,1,0.05101595726,20,f,25,d,60.00527894,SNARC lie 2,2019_Apr_18_1410
4,lawyer_4.png,a,g,t,0,14,14,11,a,1,0.05105224648,20,f,25,d,60.00527894,SNARC lie 2,2019_Apr_18_1410
6,cop_6.png,g,a,l,4,14,110,20,g,1,0.05106947478,20,f,25,d,60.00527894,SNARC lie 2,2019_Apr_18_1410
6,lawyer_6.png,a,g,t,3,3,75,4,a,1,0.084318646,20,f,25,d,60.00527894,SNARC lie 2,2019_Apr_18_1410
3,lawyer_3.png,g,a,t,4,8,104,10,g,1,0.08488571411,20,f,25,d,60.00527894,SNARC lie 2,2019_Apr_18_1410
1,cop_1.png,a,g,l,1,12,36,16,a,1,0.1010759261,20,f,25,d,60.00527894,SNARC lie 2,2019_Apr_18_1410
4,cop_4.png,g,a,l,1,3,27,19,g,1,0.1011272445,20,f,25,d,60.00527894,SNARC lie 2,2019_Apr_18_1410
2,lawyer_2.png,a,g,t,0,5,5,1,a,1,0.1176096052,20,f,25,d,60.00527894,SNARC lie 2,2019_Apr_18_1410
2,lawyer_2.png,a,g,t,1,10,34,1,a,1,0.1177624606,20,f,25,d,60.00527894,SNARC lie 2,2019_Apr_18_1410
8,cop_8.png,g,a,l,0,19,19,22,g,1,0.117781155,20,f,25,d,60.00527894,SNARC lie 2,2019_Apr_18_1410
1,lawyer_1.png,g,a,t,4,2,98,0,g,1,0.134358821,20,f,25,d,60.00527894,SNARC lie 2,2019_Apr_18_1410
6,lawyer_6.png,a,g,t,4,6,102,12,g,1,0.1676604101,20,f,25,d,60.00527894,SNARC lie 2,2019_Apr_18_1410
2,lawyer_2.png,a,g,t,4,14,110,1,a,1,0.1676626096,20,f,25,d,60.00527894,SNARC lie 2,2019_Apr_18_1410
8,cop_8.png,g,a,l,3,1,73,22,a,1,0.1676736064,20,f,25,d,60.00527894,SNARC lie 2,2019_Apr_18_1410
9,lawyer_9.png,g,a,t,4,5,101,7,g,1,0.1677601144,20,f,25,d,60.00527894,SNARC lie 2,2019_Apr_18_1410
8,cop_8.png,g,a,l,2,15,63,22,a,1,0.1678022686,20,f,25,d,60.00527894,SNARC lie 2,2019_Apr_18_1410
3,cop_3.png,a,g,l,1,12,36,18,g,1,0.1681109122,20,f,25,d,60.00527894,SNARC lie 2,2019_Apr_18_1410
3,lawyer_3.png,g,a,t,4,9,105,2,g,1,0.1843498771,20,f,25,d,60.00527894,SNARC lie 2,2019_Apr_18_1410
4,lawyer_4.png,a,g,t,4,7,103,3,a,1,0.184359774,20,f,25,d,60.00527894,SNARC lie 2,2019_Apr_18_1410
9,lawyer_9.png,g,a,t,2,21,69,15,a,1,0.1844598448,20,f,25,d,60.00527894,SNARC lie 2,2019_Apr_18_1410
3,cop_3.png,a,g,l,4,18,114,18,a,1,0.2010155171,20,f,25,d,60.00527894,SNARC lie 2,2019_Apr_18_1410
9,lawyer_9.png,g,a,t,4,3,99,15,g,1,0.2010657359,20,f,25,d,60.00527894,SNARC lie 2,2019_Apr_18_1410
2,cop_2.png,g,a,l,2,3,51,17,g,1,0.2010661024,20,f,25,d,60.00527894,SNARC lie 2,2019_Apr_18_1410
2,lawyer_2.png,a,g,t,0,7,7,9,a,1,0.2010880962,20,f,25,d,60.00527894,SNARC lie 2,2019_Apr_18_1410
3,lawyer_3.png,g,a,t,4,5,101,10,g,1,0.2011001925,20,f,25,d,60.00527894,SNARC lie 2,2019_Apr_18_1410
9,cop_9.png,a,g,l,3,16,88,23,a,1,0.2011232858,20,f,25,d,60.00527894,SNARC lie 2,2019_Apr_18_1410
1,lawyer_1.png,g,a,t,2,15,63,8,g,1,0.2011357488,20,f,25,d,60.00527894,SNARC lie 2,2019_Apr_18_1410
3,lawyer_3.png,g,a,t,1,15,39,2,a,1,0.2014975434,20,f,25,d,60.00527894,SNARC lie 2,2019_Apr_18_1410
6,lawyer_6.png,a,g,t,0,18,18,4,a,1,0.2169652663,20,f,25,d,60.00527894,SNARC lie 2,2019_Apr_18_1410
3,lawyer_3.png,g,a,t,0,11,11,2,g,1,0.2176166431,20,f,25,d,60.00527894,SNARC lie 2,2019_Apr_18_1410
8,lawyer_8.png,a,g,t,4,16,112,6,a,1,0.2176573309,20,f,25,d,60.00527894,SNARC lie 2,2019_Apr_18_1410
3,lawyer_3.png,g,a,t,2,19,67,2,g,1,0.2176738263,20,f,25,d,60.00527894,SNARC lie 2,2019_Apr_18_1410
1,lawyer_1.png,g,a,t,1,8,32,0,g,1,0.2176811576,20,f,25,d,60.00527894,SNARC lie 2,2019_Apr_18_1410
4,cop_4.png,g,a,l,3,10,82,19,a,1,0.2176899551,20,f,25,d,60.00527894,SNARC lie 2,2019_Apr_18_1410
1,cop_1.png,a,g,l,4,9,105,16,a,1,0.2177053504,20,f,25,d,60.00527894,SNARC lie 2,2019_Apr_18_1410
6,cop_6.png,g,a,l,3,20,92,20,a,1,0.2177881929,20,f,25,d,60.00527894,SNARC lie 2,2019_Apr_18_1410
1,cop_1.png,a,g,l,2,18,66,16,a,1,0.2343695245,20,f,25,d,60.00527894,SNARC lie 2,2019_Apr_18_1410
4,lawyer_4.png,a,g,t,1,21,45,3,g,1,0.2348647469,20,f,25,d,60.00527894,SNARC lie 2,2019_Apr_18_1410
8,cop_8.png,g,a,l,1,19,43,22,g,1,0.2509820138,20,f,25,d,60.00527894,SNARC lie 2,2019_Apr_18_1410
9,lawyer_9.png,g,a,t,0,16,16,7,g,1,0.2510098722,20,f,25,d,60.00527894,SNARC lie 2,2019_Apr_18_1410
6,lawyer_6.png,a,g,t,2,23,71,12,g,1,0.2515032617,20,f,25,d,60.00527894,SNARC lie 2,2019_Apr_18_1410
1,lawyer_1.png,g,a,t,3,7,79,0,a,1,0.2676135639,20,f,25,d,60.00527894,SNARC lie 2,2019_Apr_18_1410
3,lawyer_3.png,g,a,t,3,0,72,10,g,1,0.2676791782,20,f,25,d,60.00527894,SNARC lie 2,2019_Apr_18_1410
3,cop_3.png,a,g,l,1,1,25,18,a,1,0.2677187666,20,f,25,d,60.00527894,SNARC lie 2,2019_Apr_18_1410
6,cop_6.png,g,a,l,1,2,26,20,g,1,0.2677249981,20,f,25,d,60.00527894,SNARC lie 2,2019_Apr_18_1410
9,lawyer_9.png,g,a,t,2,17,65,7,g,1,0.26774076,20,f,25,d,60.00527894,SNARC lie 2,2019_Apr_18_1410
8,lawyer_8.png,a,g,t,3,2,74,6,a,1,0.2844327926,38,f,21,d,60.00791881,SNARC lie 2,2019_May_16_1737
2,cop_2.png,g,a,l,4,11,107,17,a,1,0.3010166902,20,f,25,d,60.00527894,SNARC lie 2,2019_Apr_18_1410
7,lawyer_7.png,g,a,t,3,12,84,13,a,1,0.3010221885,20,f,25,d,60.00527894,SNARC lie 2,2019_Apr_18_1410
3,cop_3.png,a,g,l,0,4,4,18,a,1,0.3010621436,20,f,25,d,60.00527894,SNARC lie 2,2019_Apr_18_1410
7,lawyer_7.png,g,a,t,1,0,24,5,g,1,0.3011981372,20,f,25,d,60.00527894,SNARC lie 2,2019_Apr_18_1410
1,lawyer_1.png,g,a,t,2,21,69,0,g,1,0.3176570379,20,f,25,d,60.00527894,SNARC lie 2,2019_Apr_18_1410
7,lawyer_7.png,g,a,t,4,21,117,5,g,1,0.3176815973,20,f,25,d,60.00527894,SNARC lie 2,2019_Apr_18_1410
2,lawyer_2.png,a,g,t,2,21,69,1,a,1,0.3176830634,30,m,26,d,60.02297006,SNARC lie 2,2019_Apr_30_1211
9,lawyer_9.png,g,a,t,4,19,115,7,g,1,0.3176834303,10,f,21,d,60.01095477,SNARC lie 2,2019_Apr_10_1300
1,cop_1.png,a,g,l,3,17,89,16,g,1,0.3177068899,20,f,25,d,60.00527894,SNARC lie 2,2019_Apr_18_1410
6,cop_6.png,g,a,l,3,22,94,20,g,1,0.3177101891,20,f,25,d,60.00527894,SNARC lie 2,2019_Apr_18_1410
7,lawyer_7.png,g,a,t,4,20,116,5,g,1,0.317736215,20,f,25,d,60.00527894,SNARC lie 2,2019_Apr_18_1410
2,lawyer_2.png,a,g,t,3,5,77,1,g,1,0.3177505105,20,f,25,d,60.00527894,SNARC lie 2,2019_Apr_18_1410
7,cop_7.png,a,g,l,3,5,77,21,a,1,0.3343182795,20,f,25,d,60.00527894,SNARC lie 2,2019_Apr_18_1410
7,lawyer_7.png,g,a,t,0,13,13,5,g,1,0.3343410061,20,f,25,d,60.00527894,SNARC lie 2,2019_Apr_18_1410
3,lawyer_3.png,g,a,t,0,11,11,10,g,1,0.3343461379,22,f,22,d,60.02178155,SNARC lie 2,2019_Apr_18_1558
6,lawyer_6.png,a,g,t,1,14,38,12,g,1,0.3343538358,37,m,24,d,60.1277463,SNARC lie 1,2019_May_16_1648
3,lawyer_3.png,g,a,t,3,20,92,2,g,1,0.3345642411,20,f,25,d,60.00527894,SNARC lie 2,2019_Apr_18_1410
4,lawyer_4.png,a,g,t,2,16,64,11,g,1,0.3348226659,20,f,25,d,60.00527894,SNARC lie 2,2019_Apr_18_1410
8,lawyer_8.png,a,g,t,4,8,104,14,g,1,0.3502024142,17,f,26,d,60.03816113,SNARC lie 1,2019_Apr_18_1109
9,cop_9.png,a,g,l,4,1,97,23,a,1,0.3502973535,20,f,25,d,60.00527894,SNARC lie 2,2019_Apr_18_1410
6,cop_6.png,g,a,l,3,4,76,20,a,1,0.3508853153,38,f,21,d,60.00791881,SNARC lie 2,2019_May_16_1737
7,lawyer_7.png,g,a,t,3,6,78,5,a,1,0.3509457975,20,f,25,d,60.00527894,SNARC lie 2,2019_Apr_18_1410
2,lawyer_2.png,a,g,t,0,9,9,9,g,1,0.3509707237,27,f,24,d,60.02257397,SNARC lie 1,2019_Apr_29_1114
6,lawyer_6.png,a,g,t,4,2,98,4,g,1,0.350975489,21,f,20,d,60.02323421,SNARC lie 1,2019_Apr_18_1508
4,lawyer_4.png,a,g,t,1,11,35,11,a,1,0.3509850195,27,f,24,d,60.02257397,SNARC lie 1,2019_Apr_29_1114
1,lawyer_1.png,g,a,t,4,10,106,8,g,1,0.3509894181,20,f,25,d,60.00527894,SNARC lie 2,2019_Apr_18_1410
8,lawyer_8.png,a,g,t,1,6,30,14,g,1,0.3509949166,38,f,21,d,60.00791881,SNARC lie 2,2019_May_16_1737
3,lawyer_3.png,g,a,t,1,10,34,2,g,1,0.3510139778,18,f,23,d,60.01702786,SNARC lie 2,2019_Apr_18_1207
9,cop_9.png,a,g,l,4,8,104,23,g,1,0.351014711,20,f,25,d,60.00527894,SNARC lie 2,2019_Apr_18_1410
4,lawyer_4.png,a,g,t,0,23,23,11,g,1,0.3510161773,37,m,24,d,60.1277463,SNARC lie 1,2019_May_16_1648
2,lawyer_2.png,a,g,t,0,3,3,1,a,1,0.3510183766,28,f,21,d,60.03657565,SNARC lie 2,2019_Apr_30_0939
8,lawyer_8.png,a,g,t,3,5,77,6,g,1,0.3510205757,7,f,24,d,60.00171555,SNARC lie 1,2019_Apr_10_1010
2,lawyer_2.png,a,g,t,1,22,46,1,g,1,0.3510403698,37,m,24,d,60.1277463,SNARC lie 1,2019_May_16_1648
2,lawyer_2.png,a,g,t,3,22,94,9,a,1,0.3669384341,7,f,24,d,60.00171555,SNARC lie 1,2019_Apr_10_1010
8,cop_8.png,g,a,l,2,23,71,22,a,1,0.3675736822,38,f,21,d,60.00791881,SNARC lie 2,2019_May_16_1737
8,cop_8.png,g,a,l,3,3,75,22,a,1,0.3676260998,38,f,21,d,60.00791881,SNARC lie 2,2019_May_16_1737
9,cop_9.png,a,g,l,0,20,20,23,a,1,0.3676264668,20,f,25,d,60.00527894,SNARC lie 2,2019_Apr_18_1410
8,lawyer_8.png,a,g,t,3,11,83,14,g,1,0.3676301325,35,m,21,d,60.01808426,SNARC lie 1,2019_May_16_1301
4,lawyer_4.png,a,g,t,2,20,68,3,g,1,0.3676400296,37,m,24,d,60.1277463,SNARC lie 1,2019_May_16_1648
1,lawyer_1.png,g,a,t,4,17,113,0,g,1,0.367642962,10,f,21,d,60.01095477,SNARC lie 2,2019_Apr_10_1300
4,lawyer_4.png,a,g,t,3,16,88,11,g,1,0.3676433285,8,m,27,d,60.02468695,SNARC lie 2,2019_Apr_10_1125
8,lawyer_8.png,a,g,t,0,1,1,14,g,1,0.3676444283,25,m,19,s,60.01491534,SNARC lie 1,2019_Apr_24_1610
1,lawyer_1.png,g,a,t,4,5,101,8,g,1,0.3676495601,22,f,22,d,60.02178155,SNARC lie 2,2019_Apr_18_1558
4,lawyer_4.png,a,g,t,1,23,47,11,a,1,0.3676521261,37,m,24,d,60.1277463,SNARC lie 1,2019_May_16_1648
2,lawyer_2.png,a,g,t,0,14,14,9,a,1,0.3676532258,25,m,19,s,60.01491534,SNARC lie 1,2019_Apr_24_1610
2,lawyer_2.png,a,g,t,0,13,13,1,g,1,0.3676638557,37,m,24,d,60.1277463,SNARC lie 1,2019_May_16_1648
2,lawyer_2.png,a,g,t,0,10,10,1,g,1,0.3676660554,37,m,24,d,60.1277463,SNARC lie 1,2019_May_16_1648
4,lawyer_4.png,a,g,t,0,6,6,11,g,1,0.3676693542,27,f,24,d,60.02257397,SNARC lie 1,2019_Apr_29_1114
6,lawyer_6.png,a,g,t,2,4,52,4,g,1,0.3676763191,37,m,24,d,60.1277463,SNARC lie 1,2019_May_16_1648
3,lawyer_3.png,g,a,t,1,21,45,10,g,1,0.3676788847,20,f,25,d,60.00527894,SNARC lie 2,2019_Apr_18_1410
7,lawyer_7.png,g,a,t,1,7,31,5,g,1,0.3676814507,27,f,24,d,60.02257397,SNARC lie 1,2019_Apr_29_1114
2,lawyer_2.png,a,g,t,1,3,27,9,a,1,0.3676876822,31,m,21,d,60.02297006,SNARC lie 1,2019_Apr_30_1303
8,lawyer_8.png,a,g,t,0,21,21,6,a,1,0.3676913478,25,m,19,s,60.01491534,SNARC lie 1,2019_Apr_24_1610
2,lawyer_2.png,a,g,t,0,5,5,9,g,1,0.3677379009,7,f,24,d,60.00171555,SNARC lie 1,2019_Apr_10_1010
2,lawyer_2.png,a,g,t,4,10,106,9,a,1,0.383571084,6,f,21,d,60.01676381,SNARC lie 2,2019_Apr_10_0911
6,lawyer_6.png,a,g,t,3,3,75,12,g,1,0.3842103643,7,f,24,d,60.00171555,SNARC lie 1,2019_Apr_10_1010
4,cop_4.png,g,a,l,3,13,85,19,g,1,0.3842561843,20,f,25,d,60.00527894,SNARC lie 2,2019_Apr_18_1410
2,cop_2.png,g,a,l,2,20,68,17,a,1,0.3842675476,21,f,20,d,60.02323421,SNARC lie 1,2019_Apr_18_1508
8,lawyer_8.png,a,g,t,0,22,22,14,a,1,0.3842781777,27,f,24,d,60.02257397,SNARC lie 1,2019_Apr_29_1114
9,lawyer_9.png,g,a,t,4,10,106,7,a,1,0.3842840429,7,f,24,d,60.00171555,SNARC lie 1,2019_Apr_10_1010
6,lawyer_6.png,a,g,t,3,3,75,4,g,1,0.3842851426,37,m,24,d,60.1277463,SNARC lie 1,2019_May_16_1648
7,lawyer_7.png,g,a,t,4,3,99,13,a,1,0.3842899078,7,f,24,d,60.00171555,SNARC lie 1,2019_Apr_10_1010
2,cop_2.png,g,a,l,2,14,62,17,a,1,0.38429284,38,f,21,d,60.00791881,SNARC lie 2,2019_May_16_1737
8,lawyer_8.png,a,g,t,2,19,67,6,g,1,0.3842935734,37,m,24,d,60.1277463,SNARC lie 1,2019_May_16_1648
1,lawyer_1.png,g,a,t,4,1,97,0,a,1,0.3843001714,23,f,24,d,60.01161484,SNARC lie 1,2019_Apr_18_1730
6,lawyer_6.png,a,g,t,0,4,4,4,g,1,0.3843016378,37,m,24,d,60.1277463,SNARC lie 1,2019_May_16_1648
4,lawyer_4.png,a,g,t,0,1,1,3,g,1,0.3843082357,22,f,22,d,60.02178155,SNARC lie 2,2019_Apr_18_1558
6,lawyer_6.png,a,g,t,3,21,93,4,g,1,0.3843133678,33,f,20,d,60.02283803,SNARC lie 1,2019_Apr_30_1445
8,lawyer_8.png,a,g,t,4,14,110,6,g,1,0.3843141007,25,m,19,s,60.01491534,SNARC lie 1,2019_Apr_24_1610
7,lawyer_7.png,g,a,t,4,13,109,13,a,1,0.3843236312,17,f,26,d,60.03816113,SNARC lie 1,2019_Apr_18_1109
4,lawyer_4.png,a,g,t,4,0,96,3,g,1,0.3843243644,23,f,24,d,60.01161484,SNARC lie 1,2019_Apr_18_1730
1,lawyer_1.png,g,a,t,3,3,75,8,a,1,0.3843254643,38,f,21,d,60.00791881,SNARC lie 2,2019_May_16_1737
4,lawyer_4.png,a,g,t,0,15,15,3,g,1,0.3843258303,28,f,21,d,60.03657565,SNARC lie 2,2019_Apr_30_0939
9,lawyer_9.png,g,a,t,1,8,32,15,g,1,0.3843434253,27,f,24,d,60.02257397,SNARC lie 1,2019_Apr_29_1114
8,lawyer_8.png,a,g,t,4,18,114,6,a,1,0.3843437922,37,m,24,d,60.1277463,SNARC lie 1,2019_May_16_1648
7,lawyer_7.png,g,a,t,2,8,56,13,a,1,0.3843441587,38,f,21,d,60.00791881,SNARC lie 2,2019_May_16_1737
2,lawyer_2.png,a,g,t,1,14,38,9,g,1,0.3843459915,37,m,24,d,60.1277463,SNARC lie 1,2019_May_16_1648
4,lawyer_4.png,a,g,t,3,0,72,11,a,1,0.3843463575,37,m,24,d,60.1277463,SNARC lie 1,2019_May_16_1648
2,cop_2.png,g,a,l,2,13,61,17,g,1,0.384352223,38,f,21,d,60.00791881,SNARC lie 2,2019_May_16_1737
8,lawyer_8.png,a,g,t,1,13,37,14,g,1,0.3843599206,23,f,24,d,60.01161484,SNARC lie 1,2019_Apr_18_1730
2,lawyer_2.png,a,g,t,3,12,84,9,g,1,0.3843628531,7,f,24,d,60.00171555,SNARC lie 1,2019_Apr_10_1010
2,lawyer_2.png,a,g,t,0,7,7,1,g,1,0.3843771489,27,f,24,d,60.02257397,SNARC lie 1,2019_Apr_29_1114
6,lawyer_6.png,a,g,t,4,18,114,4,g,1,0.3844020749,37,m,24,d,60.1277463,SNARC lie 1,2019_May_16_1648
8,lawyer_8.png,a,g,t,4,1,97,6,g,1,0.3844130717,20,f,25,d,60.00527894,SNARC lie 2,2019_Apr_18_1410
6,lawyer_6.png,a,g,t,0,3,3,12,g,1,0.3844226021,37,m,24,d,60.1277463,SNARC lie 1,2019_May_16_1648
8,lawyer_8.png,a,g,t,1,23,47,14,a,1,0.3844962809,37,m,24,d,60.1277463,SNARC lie 1,2019_May_16_1648
6,lawyer_6.png,a,g,t,3,4,76,12,g,1,0.3845410012,22,f,22,d,60.02178155,SNARC lie 2,2019_Apr_18_1558
2,lawyer_2.png,a,g,t,1,18,42,1,g,1,0.400075438,27,f,24,d,60.02257397,SNARC lie 1,2019_Apr_29_1114
2,lawyer_2.png,a,g,t,1,8,32,1,g,1,0.4002700811,23,f,24,d,60.01161484,SNARC lie 1,2019_Apr_18_1730
3,lawyer_3.png,g,a,t,3,8,80,2,a,1,0.4003895798,25,m,19,s,60.01491534,SNARC lie 1,2019_Apr_24_1610
2,lawyer_2.png,a,g,t,2,1,49,9,a,1,0.4006857601,4,f,24,d,60.03340485,SNARC lie 2,2019_Apr_09_1700
8,lawyer_8.png,a,g,t,3,5,77,6,g,1,0.4007755672,25,m,19,s,60.01491534,SNARC lie 1,2019_Apr_24_1610
1,lawyer_1.png,g,a,t,1,20,44,8,g,1,0.4008895673,20,f,25,d,60.00527894,SNARC lie 2,2019_Apr_18_1410
6,lawyer_6.png,a,g,t,4,0,96,4,g,1,0.4009236575,20,f,25,d,60.00527894,SNARC lie 2,2019_Apr_18_1410
2,lawyer_2.png,a,g,t,2,0,48,9,a,1,0.4009551816,37,m,24,d,60.1277463,SNARC lie 1,2019_May_16_1648
4,lawyer_4.png,a,g,t,4,0,96,11,g,1,0.4009562811,7,f,24,d,60.00171555,SNARC lie 1,2019_Apr_10_1010
4,lawyer_4.png,a,g,t,0,12,12,11,a,1,0.4009562812,25,m,19,s,60.01491534,SNARC lie 1,2019_Apr_24_1610
1,lawyer_1.png,g,a,t,1,23,47,8,a,1,0.400961413,25,m,19,s,60.01491534,SNARC lie 1,2019_Apr_24_1610
4,lawyer_4.png,a,g,t,0,7,7,3,a,1,0.4009669113,11,f,21,d,60.03644348,SNARC lie 1,2019_Apr_10_1403
6,lawyer_6.png,a,g,t,3,8,80,12,g,1,0.4009705773,32,f,21,d,60.00791881,SNARC lie 2,2019_Apr_30_1358
2,lawyer_2.png,a,g,t,3,15,87,1,g,1,0.4009709433,31,m,21,d,60.02297006,SNARC lie 1,2019_Apr_30_1303
3,lawyer_3.png,g,a,t,4,17,113,10,g,1,0.4009724098,6,f,21,d,60.01676381,SNARC lie 2,2019_Apr_10_0911
4,lawyer_4.png,a,g,t,4,8,104,3,a,1,0.4009735095,25,m,19,s,60.01491534,SNARC lie 1,2019_Apr_24_1610
1,lawyer_1.png,g,a,t,3,19,91,8,g,1,0.400974609,38,f,21,d,60.00791881,SNARC lie 2,2019_May_16_1737
1,lawyer_1.png,g,a,t,0,21,21,0,g,1,0.4009779082,38,f,21,d,60.00791881,SNARC lie 2,2019_May_16_1737
6,cop_6.png,g,a,l,2,18,66,20,a,1,0.4009815739,20,f,25,d,60.00527894,SNARC lie 2,2019_Apr_18_1410
2,lawyer_2.png,a,g,t,1,3,27,1,g,1,0.4009834066,7,f,24,d,60.00171555,SNARC lie 1,2019_Apr_10_1010
2,lawyer_2.png,a,g,t,4,22,118,1,g,1,0.4009837732,8,m,27,d,60.02468695,SNARC lie 2,2019_Apr_10_1125
4,cop_4.png,g,a,l,2,7,55,19,a,1,0.4009845061,38,f,21,d,60.00791881,SNARC lie 2,2019_May_16_1737
9,lawyer_9.png,g,a,t,2,21,69,7,g,1,0.4009852391,37,m,24,d,60.1277463,SNARC lie 1,2019_May_16_1648
3,lawyer_3.png,g,a,t,2,16,64,2,g,1,0.4009867054,38,f,21,d,60.00791881,SNARC lie 2,2019_May_16_1737
6,lawyer_6.png,a,g,t,2,8,56,4,a,1,0.4009874386,14,m,21,d,60.00686277,SNARC lie 2,2019_Apr_17_1552
8,lawyer_8.png,a,g,t,3,2,74,14,g,1,0.400988905,20,f,25,d,60.00527894,SNARC lie 2,2019_Apr_18_1410
4,lawyer_4.png,a,g,t,1,17,41,3,g,1,0.4009892716,7,f,24,d,60.00171555,SNARC lie 1,2019_Apr_10_1010
8,lawyer_8.png,a,g,t,0,3,3,14,g,1,0.400991471,37,m,24,d,60.1277463,SNARC lie 1,2019_May_16_1648
8,lawyer_8.png,a,g,t,0,7,7,6,g,1,0.4009977025,25,m,19,s,60.01491534,SNARC lie 1,2019_Apr_24_1610
9,lawyer_9.png,g,a,t,2,20,68,7,a,1,0.4009977025,36,f,20,d,60.02508316,SNARC lie 2,2019_May_16_1508
6,lawyer_6.png,a,g,t,1,9,33,12,g,1,0.4009984354,7,f,24,d,60.00171555,SNARC lie 1,2019_Apr_10_1010
8,lawyer_8.png,a,g,t,4,13,109,14,g,1,0.4009988019,31,m,21,d,60.02297006,SNARC lie 1,2019_Apr_30_1303
8,lawyer_8.png,a,g,t,2,13,61,6,a,1,0.4009988019,37,m,24,d,60.1277463,SNARC lie 1,2019_May_16_1648
7,lawyer_7.png,g,a,t,3,5,77,5,g,1,0.4010002683,37,m,24,d,60.1277463,SNARC lie 1,2019_May_16_1648
6,lawyer_6.png,a,g,t,2,3,51,4,g,1,0.4010054001,20,f,25,d,60.00527894,SNARC lie 2,2019_Apr_18_1410
4,lawyer_4.png,a,g,t,2,10,58,3,a,1,0.4010061333,18,f,23,d,60.01702786,SNARC lie 2,2019_Apr_18_1207
3,cop_3.png,a,g,l,1,17,41,18,g,1,0.4010064998,37,m,24,d,60.1277463,SNARC lie 1,2019_May_16_1648
3,lawyer_3.png,g,a,t,3,20,92,2,a,1,0.401007233,8,m,27,d,60.02468695,SNARC lie 2,2019_Apr_10_1125
3,lawyer_3.png,g,a,t,0,15,15,2,g,1,0.4010189627,38,f,21,d,60.00791881,SNARC lie 2,2019_May_16_1737
1,lawyer_1.png,g,a,t,0,14,14,0,g,1,0.4010222619,34,f,23,s,60.01557549,SNARC lie 2,2019_May_16_1156
1,lawyer_1.png,g,a,t,3,21,93,0,a,1,0.4010229954,35,m,21,d,60.01808426,SNARC lie 1,2019_May_16_1301
2,lawyer_2.png,a,g,t,1,5,29,9,g,1,0.4010251944,23,f,24,d,60.01161484,SNARC lie 1,2019_Apr_18_1730
2,lawyer_2.png,a,g,t,2,17,65,1,g,1,0.4010266606,33,f,20,d,60.02283803,SNARC lie 1,2019_Apr_30_1445
8,lawyer_8.png,a,g,t,4,16,112,6,a,1,0.4010328923,22,f,22,d,60.02178155,SNARC lie 2,2019_Apr_18_1558
4,lawyer_4.png,a,g,t,4,16,112,11,g,1,0.4010376572,37,m,24,d,60.1277463,SNARC lie 1,2019_May_16_1648
6,lawyer_6.png,a,g,t,0,4,4,4,a,1,0.4010420558,37,m,24,d,60.1277463,SNARC lie 1,2019_May_16_1648
4,lawyer_4.png,a,g,t,0,1,1,11,a,1,0.4010457217,22,f,22,d,60.02178155,SNARC lie 2,2019_Apr_18_1558
6,lawyer_6.png,a,g,t,0,0,0,4,g,1,0.4010464549,22,f,22,d,60.02178155,SNARC lie 2,2019_Apr_18_1558
2,lawyer_2.png,a,g,t,3,17,89,9,a,1,0.4010468214,37,m,24,d,60.1277463,SNARC lie 1,2019_May_16_1648
2,lawyer_2.png,a,g,t,2,2,50,9,g,1,0.401048654,23,f,24,d,60.01161484,SNARC lie 1,2019_Apr_18_1730
4,lawyer_4.png,a,g,t,0,1,1,11,g,1,0.4010490208,8,m,27,d,60.02468695,SNARC lie 2,2019_Apr_10_1125
8,lawyer_8.png,a,g,t,2,7,55,14,g,1,0.4010556188,8,m,27,d,60.02468695,SNARC lie 2,2019_Apr_10_1125
8,lawyer_8.png,a,g,t,1,12,36,6,g,1,0.4010647829,37,m,24,d,60.1277463,SNARC lie 1,2019_May_16_1648
8,lawyer_8.png,a,g,t,4,23,119,14,g,1,0.4010717473,25,m,19,s,60.01491534,SNARC lie 1,2019_Apr_24_1610
3,lawyer_3.png,g,a,t,1,16,40,2,a,1,0.4010721138,38,f,21,d,60.00791881,SNARC lie 2,2019_May_16_1737
7,lawyer_7.png,g,a,t,2,0,48,13,a,1,0.4010867765,38,f,21,d,60.00791881,SNARC lie 2,2019_May_16_1737
4,lawyer_4.png,a,g,t,4,0,96,11,g,1,0.4010933747,17,f,26,d,60.03816113,SNARC lie 1,2019_Apr_18_1109
2,lawyer_2.png,a,g,t,2,23,71,9,a,1,0.4011252653,37,m,24,d,60.1277463,SNARC lie 1,2019_May_16_1648
9,lawyer_9.png,g,a,t,2,4,52,15,g,1,0.4014023845,20,f,25,d,60.00527894,SNARC lie 2,2019_Apr_18_1410
4,lawyer_4.png,a,g,t,4,22,118,11,a,1,0.4041596469,37,m,24,d,60.1277463,SNARC lie 1,2019_May_16_1648
8,lawyer_8.png,a,g,t,4,7,103,14,g,1,0.416892834,25,m,19,s,60.01491534,SNARC lie 1,2019_Apr_24_1610
3,lawyer_3.png,g,a,t,1,16,40,2,g,1,0.4169177599,27,f,24,d,60.02257397,SNARC lie 1,2019_Apr_29_1114
1,lawyer_1.png,g,a,t,3,17,89,0,a,1,0.4169199595,25,m,19,s,60.01491534,SNARC lie 1,2019_Apr_24_1610
4,lawyer_4.png,a,g,t,1,8,32,11,g,1,0.4169896058,3,f,20,d,60.01201092,SNARC lie 1,2019_Apr_09_1542
8,lawyer_8.png,a,g,t,1,7,31,14,g,1,0.4175141529,3,f,20,d,60.01201092,SNARC lie 1,2019_Apr_09_1542
6,lawyer_6.png,a,g,t,1,7,31,12,g,1,0.4175625388,7,f,24,d,60.00171555,SNARC lie 1,2019_Apr_10_1010
6,lawyer_6.png,a,g,t,4,18,114,4,a,1,0.4175724357,25,m,19,s,60.01491534,SNARC lie 1,2019_Apr_24_1610
6,lawyer_6.png,a,g,t,3,8,80,4,g,1,0.4175731691,25,m,19,s,60.01491534,SNARC lie 1,2019_Apr_24_1610
1,lawyer_1.png,g,a,t,0,12,12,0,a,1,0.4176068921,35,m,21,d,60.01808426,SNARC lie 1,2019_May_16_1301
8,lawyer_8.png,a,g,t,0,8,8,6,g,1,0.4176160563,27,f,24,d,60.02257397,SNARC lie 1,2019_Apr_29_1114
7,lawyer_7.png,g,a,t,3,22,94,13,a,1,0.4176171562,35,m,21,d,60.01808426,SNARC lie 1,2019_May_16_1301
2,lawyer_2.png,a,g,t,0,9,9,9,g,1,0.417618989,37,m,24,d,60.1277463,SNARC lie 1,2019_May_16_1648
9,lawyer_9.png,g,a,t,3,6,78,7,a,1,0.4176200887,21,f,20,d,60.02323421,SNARC lie 1,2019_Apr_18_1508
3,lawyer_3.png,g,a,t,2,4,52,2,a,1,0.4176226547,27,f,24,d,60.02257397,SNARC lie 1,2019_Apr_29_1114
4,lawyer_4.png,a,g,t,0,1,1,3,a,1,0.4176277865,25,m,19,s,60.01491534,SNARC lie 1,2019_Apr_24_1610
8,lawyer_8.png,a,g,t,3,23,95,6,a,1,0.417628153,22,f,22,d,60.02178155,SNARC lie 2,2019_Apr_18_1558
2,lawyer_2.png,a,g,t,4,1,97,9,g,1,0.4176307188,21,f,20,d,60.02323421,SNARC lie 1,2019_Apr_18_1508
6,lawyer_6.png,a,g,t,3,9,81,12,g,1,0.4176307188,25,m,19,s,60.01491534,SNARC lie 1,2019_Apr_24_1610
2,lawyer_2.png,a,g,t,4,23,119,9,g,1,0.4176310853,25,m,19,s,60.01491534,SNARC lie 1,2019_Apr_24_1610
2,lawyer_2.png,a,g,t,1,1,25,9,g,1,0.4176336513,32,f,21,d,60.00791881,SNARC lie 2,2019_Apr_30_1358
2,lawyer_2.png,a,g,t,0,6,6,1,g,1,0.4176358506,25,m,19,s,60.01491534,SNARC lie 1,2019_Apr_24_1610
4,cop_4.png,g,a,l,2,9,57,19,a,1,0.4176395163,25,m,19,s,60.01491534,SNARC lie 1,2019_Apr_24_1610
3,lawyer_3.png,g,a,t,0,7,7,10,g,1,0.4176409822,27,f,24,d,60.02257397,SNARC lie 1,2019_Apr_29_1114
6,lawyer_6.png,a,g,t,3,16,88,12,g,1,0.4176428153,21,f,20,d,60.02323421,SNARC lie 1,2019_Apr_18_1508
7,lawyer_7.png,g,a,t,2,14,62,13,a,1,0.4176428153,23,f,24,d,60.01161484,SNARC lie 1,2019_Apr_18_1730
6,lawyer_6.png,a,g,t,2,8,56,12,a,1,0.4176435485,37,m,24,d,60.1277463,SNARC lie 1,2019_May_16_1648
1,lawyer_1.png,g,a,t,4,1,97,0,a,1,0.4176497799,7,f,24,d,60.00171555,SNARC lie 1,2019_Apr_10_1010
2,lawyer_2.png,a,g,t,3,20,92,9,a,1,0.4176505131,25,m,19,s,60.01491534,SNARC lie 1,2019_Apr_24_1610
2,lawyer_2.png,a,g,t,4,8,104,9,g,1,0.4176516128,23,f,24,d,60.01161484,SNARC lie 1,2019_Apr_18_1730
3,lawyer_3.png,g,a,t,3,4,76,2,g,1,0.4176527124,7,f,24,d,60.00171555,SNARC lie 1,2019_Apr_10_1010
8,lawyer_8.png,a,g,t,2,7,55,6,a,1,0.4176534454,22,f,22,d,60.02178155,SNARC lie 2,2019_Apr_18_1558
6,lawyer_6.png,a,g,t,1,7,31,4,a,1,0.4176560114,37,m,24,d,60.1277463,SNARC lie 1,2019_May_16_1648
8,lawyer_8.png,a,g,t,1,18,42,6,a,1,0.4176560119,27,f,24,d,60.02257397,SNARC lie 1,2019_Apr_29_1114
4,lawyer_4.png,a,g,t,0,16,16,11,g,1,0.4176563781,23,f,24,d,60.01161484,SNARC lie 1,2019_Apr_18_1730
9,lawyer_9.png,g,a,t,4,1,97,15,a,1,0.4176567448,37,m,24,d,60.1277463,SNARC lie 1,2019_May_16_1648
8,lawyer_8.png,a,g,t,2,23,71,14,g,1,0.4176571111,21,f,20,d,60.02323421,SNARC lie 1,2019_Apr_18_1508
4,lawyer_4.png,a,g,t,3,0,72,3,g,1,0.4176571113,21,f,20,d,60.02323421,SNARC lie 1,2019_Apr_18_1508
6,lawyer_6.png,a,g,t,1,8,32,4,g,1,0.4176578445,25,m,19,s,60.01491534,SNARC lie 1,2019_Apr_24_1610
7,lawyer_7.png,g,a,t,2,5,53,13,g,1,0.4176593104,20,f,25,d,60.00527894,SNARC lie 2,2019_Apr_18_1410
4,lawyer_4.png,a,g,t,3,17,89,3,g,1,0.4176600436,23,f,24,d,60.01161484,SNARC lie 1,2019_Apr_18_1730
8,lawyer_8.png,a,g,t,0,4,4,6,g,1,0.4176600437,7,f,24,d,60.00171555,SNARC lie 1,2019_Apr_10_1010
3,lawyer_3.png,g,a,t,1,0,24,2,a,1,0.4176626094,35,m,21,d,60.01808426,SNARC lie 1,2019_May_16_1301
8,lawyer_8.png,a,g,t,1,23,47,14,g,1,0.4176633428,22,f,22,d,60.02178155,SNARC lie 2,2019_Apr_18_1558
8,lawyer_8.png,a,g,t,3,23,95,14,g,1,0.4176648089,25,m,19,s,60.01491534,SNARC lie 1,2019_Apr_24_1610
1,cop_1.png,a,g,l,3,7,79,16,g,1,0.4176655421,37,m,24,d,60.1277463,SNARC lie 1,2019_May_16_1648
4,lawyer_4.png,a,g,t,3,13,85,11,g,1,0.4176662751,23,f,24,d,60.01161484,SNARC lie 1,2019_Apr_18_1730
2,lawyer_2.png,a,g,t,0,2,2,9,a,1,0.4176684748,37,m,24,d,60.1277463,SNARC lie 1,2019_May_16_1648
6,lawyer_6.png,a,g,t,1,4,28,4,g,1,0.4176695743,7,f,24,d,60.00171555,SNARC lie 1,2019_Apr_10_1010
2,lawyer_2.png,a,g,t,4,9,105,9,g,1,0.4176710402,37,m,24,d,60.1277463,SNARC lie 1,2019_May_16_1648
8,lawyer_8.png,a,g,t,1,23,47,6,g,1,0.4176710404,23,f,24,d,60.01161484,SNARC lie 1,2019_Apr_18_1730
6,lawyer_6.png,a,g,t,1,21,45,4,g,1,0.41767324,23,f,24,d,60.01161484,SNARC lie 1,2019_Apr_18_1730
6,lawyer_6.png,a,g,t,2,18,66,12,g,1,0.4176769052,37,m,24,d,60.1277463,SNARC lie 1,2019_May_16_1648
4,lawyer_4.png,a,g,t,4,16,112,11,a,1,0.4176772721,38,f,21,d,60.00791881,SNARC lie 2,2019_May_16_1737
8,lawyer_8.png,a,g,t,0,5,5,14,a,1,0.4176794714,37,m,24,d,60.1277463,SNARC lie 1,2019_May_16_1648
4,lawyer_4.png,a,g,t,1,12,36,11,g,1,0.4176802044,25,m,19,s,60.01491534,SNARC lie 1,2019_Apr_24_1610
6,lawyer_6.png,a,g,t,4,12,108,4,g,1,0.4176849697,25,m,19,s,60.01491534,SNARC lie 1,2019_Apr_24_1610
4,lawyer_4.png,a,g,t,0,4,4,3,a,1,0.4176857029,18,f,23,d,60.01702786,SNARC lie 2,2019_Apr_18_1207
8,lawyer_8.png,a,g,t,0,3,3,14,a,1,0.4176882687,21,f,20,d,60.02323421,SNARC lie 1,2019_Apr_18_1508
9,lawyer_9.png,g,a,t,0,19,19,15,a,1,0.4176890021,27,f,24,d,60.02257397,SNARC lie 1,2019_Apr_29_1114
4,lawyer_4.png,a,g,t,4,5,101,3,g,1,0.4176915679,37,m,24,d,60.1277463,SNARC lie 1,2019_May_16_1648
4,lawyer_4.png,a,g,t,3,12,84,11,a,1,0.4176919344,27,f,24,d,60.02257397,SNARC lie 1,2019_Apr_29_1114
6,lawyer_6.png,a,g,t,0,16,16,12,g,1,0.4176926675,7,f,24,d,60.00171555,SNARC lie 1,2019_Apr_10_1010
8,lawyer_8.png,a,g,t,0,1,1,6,g,1,0.4176941337,37,m,24,d,60.1277463,SNARC lie 1,2019_May_16_1648
8,lawyer_8.png,a,g,t,3,17,89,14,g,1,0.4176956001,33,f,20,d,60.02283803,SNARC lie 1,2019_Apr_30_1445
4,lawyer_4.png,a,g,t,0,8,8,3,a,1,0.4176966995,22,f,22,d,60.02178155,SNARC lie 2,2019_Apr_18_1558
6,lawyer_6.png,a,g,t,2,7,55,12,a,1,0.4176996322,25,m,19,s,60.01491534,SNARC lie 1,2019_Apr_24_1610
1,lawyer_1.png,g,a,t,0,2,2,0,g,1,0.4176999985,22,f,22,d,60.02178155,SNARC lie 2,2019_Apr_18_1558
2,lawyer_2.png,a,g,t,1,6,30,1,g,1,0.4177003652,25,m,19,s,60.01491534,SNARC lie 1,2019_Apr_24_1610
1,lawyer_1.png,g,a,t,2,9,57,0,a,1,0.4177003653,7,f,24,d,60.00171555,SNARC lie 1,2019_Apr_10_1010
4,lawyer_4.png,a,g,t,2,20,68,11,g,1,0.4177003653,8,m,27,d,60.02468695,SNARC lie 2,2019_Apr_10_1125
6,lawyer_6.png,a,g,t,2,6,54,4,g,1,0.4177029314,33,f,20,d,60.02283803,SNARC lie 1,2019_Apr_30_1445
8,lawyer_8.png,a,g,t,3,16,88,14,g,1,0.417705497,16,f,27,d,60.02680016,SNARC lie 2,2019_Apr_18_1009
4,lawyer_4.png,a,g,t,0,3,3,11,a,1,0.4177076966,37,m,24,d,60.1277463,SNARC lie 1,2019_May_16_1648
2,lawyer_2.png,a,g,t,0,22,22,1,g,1,0.4177091625,33,f,20,d,60.02283803,SNARC lie 1,2019_Apr_30_1445
6,lawyer_6.png,a,g,t,2,4,52,12,g,1,0.4177157606,22,f,22,d,60.02178155,SNARC lie 2,2019_Apr_18_1558
4,lawyer_4.png,a,g,t,3,11,83,11,a,1,0.4177190597,6,f,21,d,60.01676381,SNARC lie 2,2019_Apr_10_0911
6,lawyer_6.png,a,g,t,0,19,19,12,g,1,0.4177278574,37,m,24,d,60.1277463,SNARC lie 1,2019_May_16_1648
2,lawyer_2.png,a,g,t,1,0,24,9,g,1,0.4177351884,8,m,27,d,60.02468695,SNARC lie 2,2019_Apr_10_1125
4,lawyer_4.png,a,g,t,0,8,8,3,g,1,0.4177714777,35,m,21,d,60.01808426,SNARC lie 1,2019_May_16_1301
6,lawyer_6.png,a,g,t,2,9,57,4,g,1,0.4178099665,38,f,21,d,60.00791881,SNARC lie 2,2019_May_16_1737
4,lawyer_4.png,a,g,t,1,1,25,11,g,1,0.4178561531,37,m,24,d,60.1277463,SNARC lie 1,2019_May_16_1648
4,lawyer_4.png,a,g,t,4,12,108,3,g,1,0.4178799794,15,f,19,d,60.03657565,SNARC lie 1,2019_Apr_17_1720
8,lawyer_8.png,a,g,t,3,1,73,14,g,1,0.4179137031,2,f,28,d,60.06102824,SNARC lie 2,2019_Apr_04_1721
1,lawyer_1.png,g,a,t,3,2,74,0,g,1,0.4181087129,20,f,25,d,60.00527894,SNARC lie 2,2019_Apr_18_1410
4,lawyer_4.png,a,g,t,3,23,95,11,a,1,0.418211716,20,f,25,d,60.00527894,SNARC lie 2,2019_Apr_18_1410
8,lawyer_8.png,a,g,t,2,8,56,14,g,1,0.4332666928,21,f,20,d,60.02323421,SNARC lie 1,2019_Apr_18_1508
8,cop_8.png,g,a,l,4,12,108,22,g,1,0.4335654392,38,f,21,d,60.00791881,SNARC lie 2,2019_May_16_1737
1,lawyer_1.png,g,a,t,0,2,2,8,a,1,0.4335658056,7,f,24,d,60.00171555,SNARC lie 1,2019_Apr_10_1010
2,lawyer_2.png,a,g,t,1,16,40,9,a,1,0.4335742365,6,f,21,d,60.01676381,SNARC lie 2,2019_Apr_10_0911
4,lawyer_4.png,a,g,t,0,7,7,11,g,1,0.4335804679,23,f,24,d,60.01161484,SNARC lie 1,2019_Apr_18_1730
8,lawyer_8.png,a,g,t,4,11,107,6,a,1,0.4335943973,6,f,21,d,60.01676381,SNARC lie 2,2019_Apr_10_0911
6,lawyer_6.png,a,g,t,4,22,118,4,g,1,0.4335947637,23,f,24,d,60.01161484,SNARC lie 1,2019_Apr_18_1730
7,lawyer_7.png,g,a,t,3,1,73,13,g,1,0.4342160826,36,f,20,d,60.02508316,SNARC lie 2,2019_May_16_1508
8,lawyer_8.png,a,g,t,4,4,100,14,g,1,0.4342182819,5,f,22,d,60.06486318,SNARC lie 1,2019_Apr_09_1752
4,lawyer_4.png,a,g,t,2,22,70,3,g,1,0.4342186485,8,m,27,d,60.02468695,SNARC lie 2,2019_Apr_10_1125
8,cop_8.png,g,a,l,3,14,86,22,g,1,0.4342292789,38,f,21,d,60.00791881,SNARC lie 2,2019_May_16_1737
3,lawyer_3.png,g,a,t,4,11,107,10,g,1,0.4342347775,35,m,21,d,60.01808426,SNARC lie 1,2019_May_16_1301
8,lawyer_8.png,a,g,t,3,4,76,6,a,1,0.4342476067,25,m,19,s,60.01491534,SNARC lie 1,2019_Apr_24_1610
9,lawyer_9.png,g,a,t,0,5,5,7,g,1,0.4342487068,38,f,21,d,60.00791881,SNARC lie 2,2019_May_16_1737
7,lawyer_7.png,g,a,t,3,17,89,5,a,1,0.4342516391,17,f,26,d,60.03816113,SNARC lie 1,2019_Apr_18_1109
9,lawyer_9.png,g,a,t,0,4,4,7,g,1,0.4342538381,25,m,19,s,60.01491534,SNARC lie 1,2019_Apr_24_1610
1,lawyer_1.png,g,a,t,4,12,108,0,g,1,0.4342586035,35,m,21,d,60.01808426,SNARC lie 1,2019_May_16_1301
6,lawyer_6.png,a,g,t,0,4,4,4,g,1,0.4342692338,21,f,20,d,60.02323421,SNARC lie 1,2019_Apr_18_1508
4,lawyer_4.png,a,g,t,2,1,49,11,g,1,0.4342725328,33,f,20,d,60.02283803,SNARC lie 1,2019_Apr_30_1445
8,lawyer_8.png,a,g,t,4,19,115,6,a,1,0.4342754656,35,m,21,d,60.01808426,SNARC lie 1,2019_May_16_1301
6,lawyer_6.png,a,g,t,4,2,98,12,a,1,0.4342769315,38,f,21,d,60.00791881,SNARC lie 2,2019_May_16_1737
7,lawyer_7.png,g,a,t,2,12,60,5,g,1,0.4342816968,22,f,22,d,60.02178155,SNARC lie 2,2019_Apr_18_1558
9,lawyer_9.png,g,a,t,4,21,117,7,g,1,0.4342842628,38,f,21,d,60.00791881,SNARC lie 2,2019_May_16_1737
2,lawyer_2.png,a,g,t,0,23,23,9,g,1,0.4342846293,27,f,24,d,60.02257397,SNARC lie 1,2019_Apr_29_1114
2,lawyer_2.png,a,g,t,4,5,101,1,g,1,0.4342857287,36,f,20,d,60.02508316,SNARC lie 2,2019_May_16_1508
1,lawyer_1.png,g,a,t,1,0,24,0,a,1,0.4342879283,7,f,24,d,60.00171555,SNARC lie 1,2019_Apr_10_1010
1,lawyer_1.png,g,a,t,2,16,64,0,a,1,0.434293793,37,m,24,d,60.1277463,SNARC lie 1,2019_May_16_1648
7,lawyer_7.png,g,a,t,4,23,119,13,g,1,0.4342945265,34,f,23,s,60.01557549,SNARC lie 2,2019_May_16_1156
9,lawyer_9.png,g,a,t,2,12,60,15,g,1,0.4342963588,27,f,24,d,60.02257397,SNARC lie 1,2019_Apr_29_1114
1,lawyer_1.png,g,a,t,3,13,85,8,a,1,0.434297459,25,m,19,s,60.01491534,SNARC lie 1,2019_Apr_24_1610
3,lawyer_3.png,g,a,t,2,0,48,2,a,1,0.4342978257,35,m,21,d,60.01808426,SNARC lie 1,2019_May_16_1301
8,cop_8.png,g,a,l,3,1,73,22,a,1,0.4342989251,38,f,21,d,60.00791881,SNARC lie 2,2019_May_16_1737
7,lawyer_7.png,g,a,t,0,4,4,5,a,1,0.4342996581,38,f,21,d,60.00791881,SNARC lie 2,2019_May_16_1737
4,lawyer_4.png,a,g,t,4,16,112,3,a,1,0.434300025,35,m,21,d,60.01808426,SNARC lie 1,2019_May_16_1301
4,lawyer_4.png,a,g,t,3,2,74,11,g,1,0.4343003915,23,f,24,d,60.01161484,SNARC lie 1,2019_Apr_18_1730
4,lawyer_4.png,a,g,t,4,2,98,11,a,1,0.4343014911,25,m,19,s,60.01491534,SNARC lie 1,2019_Apr_24_1610
8,lawyer_8.png,a,g,t,0,20,20,6,g,1,0.4343036907,37,m,24,d,60.1277463,SNARC lie 1,2019_May_16_1648
4,lawyer_4.png,a,g,t,1,13,37,3,g,1,0.4343051566,37,m,24,d,60.1277463,SNARC lie 1,2019_May_16_1648
7,lawyer_7.png,g,a,t,4,19,115,13,g,1,0.4343062562,20,f,25,d,60.00527894,SNARC lie 2,2019_Apr_18_1410
8,lawyer_8.png,a,g,t,4,8,104,6,g,1,0.4343069894,22,f,22,d,60.02178155,SNARC lie 2,2019_Apr_18_1558
6,lawyer_6.png,a,g,t,0,4,4,12,g,1,0.4343073559,23,f,24,d,60.01161484,SNARC lie 1,2019_Apr_18_1730
4,lawyer_4.png,a,g,t,3,16,88,11,g,1,0.4343073559,25,m,19,s,60.01491534,SNARC lie 1,2019_Apr_24_1610
6,lawyer_6.png,a,g,t,4,20,116,4,g,1,0.4343095555,22,f,22,d,60.02178155,SNARC lie 2,2019_Apr_18_1558
8,lawyer_8.png,a,g,t,4,21,117,14,g,1,0.4343106551,22,f,22,d,60.02178155,SNARC lie 2,2019_Apr_18_1558
6,lawyer_6.png,a,g,t,2,16,64,12,g,1,0.434312121,38,f,21,d,60.00791881,SNARC lie 2,2019_May_16_1737
4,lawyer_4.png,a,g,t,0,4,4,11,g,1,0.434312488,35,m,21,d,60.01808426,SNARC lie 1,2019_May_16_1301
6,lawyer_6.png,a,g,t,1,3,27,12,g,1,0.4343132209,15,f,19,d,60.03657565,SNARC lie 1,2019_Apr_17_1720
8,lawyer_8.png,a,g,t,1,18,42,14,g,1,0.4343135874,35,m,21,d,60.01808426,SNARC lie 1,2019_May_16_1301
6,lawyer_6.png,a,g,t,3,7,79,4,g,1,0.4343172532,8,m,27,d,60.02468695,SNARC lie 2,2019_Apr_10_1125
4,lawyer_4.png,a,g,t,1,9,33,3,a,1,0.4343187192,21,f,20,d,60.02323421,SNARC lie 1,2019_Apr_18_1508
2,lawyer_2.png,a,g,t,1,2,26,1,g,1,0.4343190859,23,f,24,d,60.01161484,SNARC lie 1,2019_Apr_18_1730
4,lawyer_4.png,a,g,t,4,13,109,11,a,1,0.4343194524,15,f,19,d,60.03657565,SNARC lie 1,2019_Apr_17_1720
3,lawyer_3.png,g,a,t,0,21,21,10,a,1,0.4343201853,35,m,21,d,60.01808426,SNARC lie 1,2019_May_16_1301
7,lawyer_7.png,g,a,t,3,18,90,13,a,1,0.4343227515,7,f,24,d,60.00171555,SNARC lie 1,2019_Apr_10_1010
1,lawyer_1.png,g,a,t,3,4,76,8,a,1,0.4343227516,38,f,21,d,60.00791881,SNARC lie 2,2019_May_16_1737
4,lawyer_4.png,a,g,t,0,8,8,3,g,1,0.4343253174,23,f,24,d,60.01161484,SNARC lie 1,2019_Apr_18_1730
6,lawyer_6.png,a,g,t,1,19,43,4,g,1,0.4343267835,23,f,24,d,60.01161484,SNARC lie 1,2019_Apr_18_1730
4,lawyer_4.png,a,g,t,0,17,17,11,g,1,0.4343275167,36,f,20,d,60.02508316,SNARC lie 2,2019_May_16_1508
8,lawyer_8.png,a,g,t,4,22,118,6,a,1,0.4343278834,22,f,22,d,60.02178155,SNARC lie 2,2019_Apr_18_1558
4,lawyer_4.png,a,g,t,2,8,56,3,g,1,0.4343282497,37,m,24,d,60.1277463,SNARC lie 1,2019_May_16_1648
8,lawyer_8.png,a,g,t,1,23,47,14,g,1,0.4343304494,37,m,24,d,60.1277463,SNARC lie 1,2019_May_16_1648
8,lawyer_8.png,a,g,t,2,16,64,14,g,1,0.4343319156,23,f,24,d,60.01161484,SNARC lie 1,2019_Apr_18_1730
6,lawyer_6.png,a,g,t,3,16,88,4,g,1,0.4343341149,23,f,24,d,60.01161484,SNARC lie 1,2019_Apr_18_1730
7,lawyer_7.png,g,a,t,1,20,44,13,g,1,0.4343344814,20,f,25,d,60.00527894,SNARC lie 2,2019_Apr_18_1410
7,lawyer_7.png,g,a,t,3,8,80,13,g,1,0.4343348476,37,m,24,d,60.1277463,SNARC lie 1,2019_May_16_1648
7,lawyer_7.png,g,a,t,1,4,28,13,a,1,0.4343348481,25,m,19,s,60.01491534,SNARC lie 1,2019_Apr_24_1610
4,lawyer_4.png,a,g,t,3,2,74,11,g,1,0.4343355815,37,m,24,d,60.1277463,SNARC lie 1,2019_May_16_1648
6,lawyer_6.png,a,g,t,2,7,55,4,g,1,0.4343359476,7,f,24,d,60.00171555,SNARC lie 1,2019_Apr_10_1010
3,lawyer_3.png,g,a,t,4,5,101,2,a,1,0.4343388801,7,f,24,d,60.00171555,SNARC lie 1,2019_Apr_10_1010
6,lawyer_6.png,a,g,t,4,23,119,4,g,1,0.4343392467,31,m,21,d,60.02297006,SNARC lie 1,2019_Apr_30_1303
4,lawyer_4.png,a,g,t,0,16,16,3,g,1,0.4343399798,11,f,21,d,60.03644348,SNARC lie 1,2019_Apr_10_1403
1,lawyer_1.png,g,a,t,4,4,100,8,a,1,0.4343436453,7,f,24,d,60.00171555,SNARC lie 1,2019_Apr_10_1010
4,lawyer_4.png,a,g,t,3,23,95,11,g,1,0.4343465779,7,f,24,d,60.00171555,SNARC lie 1,2019_Apr_10_1010
3,lawyer_3.png,g,a,t,3,10,82,10,a,1,0.4343476775,7,f,24,d,60.00171555,SNARC lie 1,2019_Apr_10_1010
2,lawyer_2.png,a,g,t,1,22,46,9,g,1,0.4343491436,22,f,22,d,60.02178155,SNARC lie 2,2019_Apr_18_1558
2,lawyer_2.png,a,g,t,1,10,34,9,a,1,0.4343531756,27,f,24,d,60.02257397,SNARC lie 1,2019_Apr_29_1114
2,lawyer_2.png,a,g,t,3,2,74,9,a,1,0.434353909,26,f,24,d,60.01636775,SNARC lie 2,2019_Apr_24_1700
4,lawyer_4.png,a,g,t,2,18,66,11,a,1,0.4343546422,21,f,20,d,60.02323421,SNARC lie 1,2019_Apr_18_1508
8,lawyer_8.png,a,g,t,0,18,18,14,g,1,0.434356475,17,f,26,d,60.03816113,SNARC lie 1,2019_Apr_18_1109
9,lawyer_9.png,g,a,t,2,19,67,15,g,1,0.4343575747,37,m,24,d,60.1277463,SNARC lie 1,2019_May_16_1648
6,lawyer_6.png,a,g,t,1,23,47,4,g,1,0.4343579414,16,f,27,d,60.02680016,SNARC lie 2,2019_Apr_18_1009
8,lawyer_8.png,a,g,t,2,15,63,6,g,1,0.434359774,19,f,19,d,60.02878139,SNARC lie 1,2019_Apr_18_1302
2,lawyer_2.png,a,g,t,0,6,6,1,g,1,0.4343685713,29,m,20,d,60.00580693,SNARC lie 1,2019_Apr_30_1119
6,lawyer_6.png,a,g,t,1,2,26,4,a,1,0.4343726039,37,m,24,d,60.1277463,SNARC lie 1,2019_May_16_1648
2,lawyer_2.png,a,g,t,4,19,115,9,a,1,0.4343729704,37,m,24,d,60.1277463,SNARC lie 1,2019_May_16_1648
8,lawyer_8.png,a,g,t,0,13,13,14,g,1,0.4343759029,19,f,19,d,60.02878139,SNARC lie 1,2019_Apr_18_1302
4,lawyer_4.png,a,g,t,2,8,56,3,g,1,0.4343766358,8,m,27,d,60.02468695,SNARC lie 2,2019_Apr_10_1125
1,lawyer_1.png,g,a,t,0,2,2,0,g,1,0.4343788354,35,m,21,d,60.01808426,SNARC lie 1,2019_May_16_1301
8,lawyer_8.png,a,g,t,3,16,88,6,g,1,0.4343872657,37,m,24,d,60.1277463,SNARC lie 1,2019_May_16_1648
7,lawyer_7.png,g,a,t,3,19,91,5,g,1,0.4343883656,18,f,23,d,60.01702786,SNARC lie 2,2019_Apr_18_1207
2,lawyer_2.png,a,g,t,0,5,5,9,g,1,0.4344033948,29,m,20,d,60.00580693,SNARC lie 1,2019_Apr_30_1119
8,lawyer_8.png,a,g,t,0,14,14,14,g,1,0.4344055941,37,m,24,d,60.1277463,SNARC lie 1,2019_May_16_1648
4,lawyer_4.png,a,g,t,0,10,10,3,g,1,0.4344242883,21,f,20,d,60.02323421,SNARC lie 1,2019_Apr_18_1508
9,lawyer_9.png,g,a,t,0,4,4,15,a,1,0.4344264879,37,m,24,d,60.1277463,SNARC lie 1,2019_May_16_1648
8,lawyer_8.png,a,g,t,1,22,46,6,g,1,0.4344404172,22,f,22,d,60.02178155,SNARC lie 2,2019_Apr_18_1558
4,lawyer_4.png,a,g,t,3,0,72,11,a,1,0.4344686421,25,m,19,s,60.01491534,SNARC lie 1,2019_Apr_24_1610
4,lawyer_4.png,a,g,t,2,9,57,3,g,1,0.4345610153,21,f,20,d,60.02323421,SNARC lie 1,2019_Apr_18_1508
3,lawyer_3.png,g,a,t,1,20,44,2,a,1,0.4380202401,25,m,19,s,60.01491534,SNARC lie 1,2019_Apr_24_1610
3,lawyer_3.png,g,a,t,3,21,93,2,a,1,0.4502002881,20,f,25,d,60.00527894,SNARC lie 2,2019_Apr_18_1410
7,lawyer_7.png,g,a,t,3,11,83,5,g,1,0.450223015,2,f,28,d,60.06102824,SNARC lie 2,2019_Apr_04_1721
1,lawyer_1.png,g,a,t,4,14,110,8,a,1,0.4502233816,37,m,24,d,60.1277463,SNARC lie 1,2019_May_16_1648
4,lawyer_4.png,a,g,t,3,6,78,3,a,1,0.4502431757,22,f,22,d,60.02178155,SNARC lie 2,2019_Apr_18_1558
4,lawyer_4.png,a,g,t,1,19,43,3,a,1,0.4502596706,37,m,24,d,60.1277463,SNARC lie 1,2019_May_16_1648
1,lawyer_1.png,g,a,t,3,12,84,0,g,1,0.4503410473,2,f,28,d,60.06102824,SNARC lie 2,2019_Apr_04_1721
6,lawyer_6.png,a,g,t,1,20,44,4,a,1,0.4503443463,5,f,22,d,60.06486318,SNARC lie 1,2019_Apr_09_1752
3,lawyer_3.png,g,a,t,2,10,58,10,g,1,0.4503821019,5,f,22,d,60.06486318,SNARC lie 1,2019_Apr_09_1752
2,lawyer_2.png,a,g,t,0,4,4,9,a,1,0.4505316584,5,f,22,d,60.06486318,SNARC lie 1,2019_Apr_09_1752
7,lawyer_7.png,g,a,t,3,5,77,5,g,1,0.4506046037,5,f,22,d,60.06486318,SNARC lie 1,2019_Apr_09_1752
1,lawyer_1.png,g,a,t,4,6,102,8,a,1,0.4506218322,25,m,19,s,60.01491534,SNARC lie 1,2019_Apr_24_1610
6,lawyer_6.png,a,g,t,1,19,43,12,a,1,0.4506955105,4,f,24,d,60.03340485,SNARC lie 2,2019_Apr_09_1700
4,lawyer_4.png,a,g,t,1,7,31,11,g,1,0.4508091441,4,f,24,d,60.03340485,SNARC lie 2,2019_Apr_09_1700
8,lawyer_8.png,a,g,t,2,14,62,6,g,1,0.4508663274,4,f,24,d,60.03340485,SNARC lie 2,2019_Apr_09_1700
8,lawyer_8.png,a,g,t,1,5,29,14,g,1,0.4508828227,25,m,19,s,60.01491534,SNARC lie 1,2019_Apr_24_1610
4,cop_4.png,g,a,l,2,11,59,19,g,1,0.4509015172,16,f,27,d,60.02680016,SNARC lie 2,2019_Apr_18_1009
8,lawyer_8.png,a,g,t,0,20,20,14,a,1,0.4509062825,25,m,19,s,60.01491534,SNARC lie 1,2019_Apr_24_1610
4,lawyer_4.png,a,g,t,3,17,89,3,a,1,0.4509136137,35,m,21,d,60.01808426,SNARC lie 1,2019_May_16_1301
4,lawyer_4.png,a,g,t,1,3,27,3,g,1,0.4509139801,35,m,21,d,60.01808426,SNARC lie 1,2019_May_16_1301
4,lawyer_4.png,a,g,t,2,2,50,11,g,1,0.4509154465,37,m,24,d,60.1277463,SNARC lie 1,2019_May_16_1648
4,lawyer_4.png,a,g,t,3,9,81,3,g,1,0.4509224109,32,f,21,d,60.00791881,SNARC lie 2,2019_Apr_30_1358
3,lawyer_3.png,g,a,t,2,10,58,2,g,1,0.4509246103,38,f,21,d,60.00791881,SNARC lie 2,2019_May_16_1737
2,lawyer_2.png,a,g,t,4,1,97,9,a,1,0.4509249767,37,m,24,d,60.1277463,SNARC lie 1,2019_May_16_1648
2,lawyer_2.png,a,g,t,4,10,106,1,g,1,0.4509282759,33,f,20,d,60.02283803,SNARC lie 1,2019_Apr_30_1445
8,lawyer_8.png,a,g,t,3,13,85,14,g,1,0.4509293754,38,f,21,d,60.00791881,SNARC lie 2,2019_May_16_1737
6,lawyer_6.png,a,g,t,1,5,29,4,g,1,0.4509301088,36,f,20,d,60.02508316,SNARC lie 2,2019_May_16_1508
3,lawyer_3.png,g,a,t,3,5,77,2,g,1,0.4509304753,18,f,23,d,60.01702786,SNARC lie 2,2019_Apr_18_1207
1,lawyer_1.png,g,a,t,0,5,5,8,g,1,0.4509319416,35,m,21,d,60.01808426,SNARC lie 1,2019_May_16_1301
6,lawyer_6.png,a,g,t,2,14,62,4,a,1,0.4509334079,6,f,21,d,60.01676381,SNARC lie 2,2019_Apr_10_0911
8,lawyer_8.png,a,g,t,4,5,101,6,a,1,0.4509345074,25,m,19,s,60.01491534,SNARC lie 1,2019_Apr_24_1610
4,lawyer_4.png,a,g,t,1,4,28,3,a,1,0.4509363403,22,f,22,d,60.02178155,SNARC lie 2,2019_Apr_18_1558
7,lawyer_7.png,g,a,t,2,18,66,13,a,1,0.4509370734,24,f,21,m,59.99393041,SNARC lie 2,2019_Apr_24_0942
2,lawyer_2.png,a,g,t,4,21,117,9,g,1,0.4509389061,20,f,25,d,60.00527894,SNARC lie 2,2019_Apr_18_1410
2,lawyer_2.png,a,g,t,4,11,107,1,a,1,0.450939639,38,f,21,d,60.00791881,SNARC lie 2,2019_May_16_1737
9,lawyer_9.png,g,a,t,0,15,15,15,a,1,0.4509396395,37,m,24,d,60.1277463,SNARC lie 1,2019_May_16_1648
6,lawyer_6.png,a,g,t,3,5,77,12,g,1,0.4509433052,35,m,21,d,60.01808426,SNARC lie 1,2019_May_16_1301
3,lawyer_3.png,g,a,t,4,21,117,2,g,1,0.450945504,34,f,23,s,60.01557549,SNARC lie 2,2019_May_16_1156
6,cop_6.png,g,a,l,4,8,104,20,g,1,0.4509458708,8,m,27,d,60.02468695,SNARC lie 2,2019_Apr_10_1125
8,lawyer_8.png,a,g,t,4,8,104,6,g,1,0.4509473373,30,m,26,d,60.02297006,SNARC lie 2,2019_Apr_30_1211
8,lawyer_8.png,a,g,t,4,2,98,6,a,1,0.4509513692,20,f,25,d,60.00527894,SNARC lie 2,2019_Apr_18_1410
4,lawyer_4.png,a,g,t,0,6,6,3,a,1,0.4509517357,9,m,27,d,60.0087107,SNARC lie 1,2019_Apr_10_1212
2,lawyer_2.png,a,g,t,2,3,51,9,a,1,0.4509532019,27,f,24,d,60.02257397,SNARC lie 1,2019_Apr_29_1114
4,lawyer_4.png,a,g,t,0,11,11,11,a,1,0.4509543015,22,f,22,d,60.02178155,SNARC lie 2,2019_Apr_18_1558
2,lawyer_2.png,a,g,t,0,0,0,1,g,1,0.4509543017,36,f,20,d,60.02508316,SNARC lie 2,2019_May_16_1508
4,lawyer_4.png,a,g,t,3,22,94,3,a,1,0.4509550349,11,f,21,d,60.03644348,SNARC lie 1,2019_Apr_10_1403
7,lawyer_7.png,g,a,t,0,8,8,13,g,1,0.4509554014,11,f,21,d,60.03644348,SNARC lie 1,2019_Apr_10_1403
3,lawyer_3.png,g,a,t,4,20,116,2,a,1,0.4509587004,25,m,19,s,60.01491534,SNARC lie 1,2019_Apr_24_1610
4,lawyer_4.png,a,g,t,0,6,6,11,a,1,0.4509598002,11,f,21,d,60.03644348,SNARC lie 1,2019_Apr_10_1403
4,lawyer_4.png,a,g,t,0,0,0,3,a,1,0.4509605332,22,f,22,d,60.02178155,SNARC lie 2,2019_Apr_18_1558
4,lawyer_4.png,a,g,t,2,20,68,11,g,1,0.4509616329,25,m,19,s,60.01491534,SNARC lie 1,2019_Apr_24_1610
6,lawyer_6.png,a,g,t,3,12,84,4,g,1,0.4509627325,38,f,21,d,60.00791881,SNARC lie 2,2019_May_16_1737
2,lawyer_2.png,a,g,t,0,3,3,1,g,1,0.4509627327,7,f,24,d,60.00171555,SNARC lie 1,2019_Apr_10_1010
8,lawyer_8.png,a,g,t,1,8,32,14,g,1,0.450963099,36,f,20,d,60.02508316,SNARC lie 2,2019_May_16_1508
2,lawyer_2.png,a,g,t,1,16,40,9,a,1,0.4509638322,6,f,21,d,60.01676381,SNARC lie 2,2019_Apr_10_0911
4,lawyer_4.png,a,g,t,4,9,105,3,a,1,0.4509645654,22,f,22,d,60.02178155,SNARC lie 2,2019_Apr_18_1558
2,lawyer_2.png,a,g,t,3,15,87,1,g,1,0.4509649321,17,f,26,d,60.03816113,SNARC lie 1,2019_Apr_18_1109
2,lawyer_2.png,a,g,t,3,4,76,1,a,1,0.4509656653,30,m,26,d,60.02297006,SNARC lie 2,2019_Apr_30_1211
9,lawyer_9.png,g,a,t,1,5,29,7,g,1,0.4509674981,27,f,24,d,60.02257397,SNARC lie 1,2019_Apr_29_1114
4,lawyer_4.png,a,g,t,2,21,69,11,a,1,0.4509678645,11,f,21,d,60.03644348,SNARC lie 1,2019_Apr_10_1403
8,lawyer_8.png,a,g,t,3,1,73,14,g,1,0.4509685976,25,m,19,s,60.01491534,SNARC lie 1,2019_Apr_24_1610
2,lawyer_2.png,a,g,t,3,22,94,1,g,1,0.450968964,33,f,20,d,60.02283803,SNARC lie 1,2019_Apr_30_1445
2,lawyer_2.png,a,g,t,4,0,96,1,g,1,0.450968964,37,m,24,d,60.1277463,SNARC lie 1,2019_May_16_1648
8,lawyer_8.png,a,g,t,4,21,117,14,g,1,0.4509696972,8,m,27,d,60.02468695,SNARC lie 2,2019_Apr_10_1125
3,lawyer_3.png,g,a,t,0,1,1,10,g,1,0.4509700639,35,m,21,d,60.01808426,SNARC lie 1,2019_May_16_1301
2,lawyer_2.png,a,g,t,2,14,62,1,g,1,0.4509707969,25,m,19,s,60.01491534,SNARC lie 1,2019_Apr_24_1610
8,lawyer_8.png,a,g,t,0,4,4,6,g,1,0.4509715301,23,f,24,d,60.01161484,SNARC lie 1,2019_Apr_18_1730
4,lawyer_4.png,a,g,t,1,3,27,3,g,1,0.4509715301,25,m,19,s,60.01491534,SNARC lie 1,2019_Apr_24_1610
1,lawyer_1.png,g,a,t,4,15,111,8,g,1,0.4509722632,35,m,21,d,60.01808426,SNARC lie 1,2019_May_16_1301
6,lawyer_6.png,a,g,t,3,7,79,12,a,1,0.4509726297,22,f,22,d,60.02178155,SNARC lie 2,2019_Apr_18_1558
7,lawyer_7.png,g,a,t,1,0,24,5,a,1,0.4509726297,36,f,20,d,60.02508316,SNARC lie 2,2019_May_16_1508
8,lawyer_8.png,a,g,t,2,21,69,14,g,1,0.4509726298,8,m,27,d,60.02468695,SNARC lie 2,2019_Apr_10_1125
6,lawyer_6.png,a,g,t,3,17,89,12,g,1,0.450974096,7,f,24,d,60.00171555,SNARC lie 1,2019_Apr_10_1010
6,lawyer_6.png,a,g,t,4,18,114,12,g,1,0.4509744626,23,f,24,d,60.01161484,SNARC lie 1,2019_Apr_18_1730
7,lawyer_7.png,g,a,t,1,6,30,13,g,1,0.4509744626,27,f,24,d,60.02257397,SNARC lie 1,2019_Apr_29_1114
4,lawyer_4.png,a,g,t,1,12,36,11,g,1,0.4509744626,33,f,20,d,60.02283803,SNARC lie 1,2019_Apr_30_1445
2,lawyer_2.png,a,g,t,2,0,48,1,g,1,0.4509744626,33,f,20,d,60.02283803,SNARC lie 1,2019_Apr_30_1445
9,lawyer_9.png,g,a,t,0,5,5,7,g,1,0.4509748291,7,f,24,d,60.00171555,SNARC lie 1,2019_Apr_10_1010
7,lawyer_7.png,g,a,t,1,8,32,13,a,1,0.450975562,37,m,24,d,60.1277463,SNARC lie 1,2019_May_16_1648
7,lawyer_7.png,g,a,t,0,8,8,5,a,1,0.4509766619,25,m,19,s,60.01491534,SNARC lie 1,2019_Apr_24_1610
8,lawyer_8.png,a,g,t,3,2,74,14,a,1,0.4509773948,22,f,22,d,60.02178155,SNARC lie 2,2019_Apr_18_1558
1,lawyer_1.png,g,a,t,4,2,98,0,g,1,0.4509777618,22,f,22,d,60.02178155,SNARC lie 2,2019_Apr_18_1558
7,lawyer_7.png,g,a,t,0,9,9,5,a,1,0.4509803276,35,m,21,d,60.01808426,SNARC lie 1,2019_May_16_1301
8,lawyer_8.png,a,g,t,0,3,3,6,a,1,0.450981427,22,f,22,d,60.02178155,SNARC lie 2,2019_Apr_18_1558
8,lawyer_8.png,a,g,t,0,5,5,14,g,1,0.4509817939,31,m,21,d,60.02297006,SNARC lie 1,2019_Apr_30_1303
6,lawyer_6.png,a,g,t,0,11,11,4,g,1,0.4509843597,18,f,23,d,60.01702786,SNARC lie 2,2019_Apr_18_1207
7,lawyer_7.png,g,a,t,4,19,115,5,a,1,0.4509847262,7,f,24,d,60.00171555,SNARC lie 1,2019_Apr_10_1010
6,lawyer_6.png,a,g,t,0,0,0,4,a,1,0.4509847262,22,f,22,d,60.02178155,SNARC lie 2,2019_Apr_18_1558
8,lawyer_8.png,a,g,t,2,18,66,6,g,1,0.4509850927,25,m,19,s,60.01491534,SNARC lie 1,2019_Apr_24_1610
2,lawyer_2.png,a,g,t,1,4,28,1,g,1,0.4509854591,29,m,20,d,60.00580693,SNARC lie 1,2019_Apr_30_1119
1,lawyer_1.png,g,a,t,2,18,66,0,g,1,0.4509858259,14,m,21,d,60.00686277,SNARC lie 2,2019_Apr_17_1552
2,lawyer_2.png,a,g,t,2,18,66,9,g,1,0.4509869255,22,f,22,d,60.02178155,SNARC lie 2,2019_Apr_18_1558
6,lawyer_6.png,a,g,t,0,21,21,12,g,1,0.4509869255,25,m,19,s,60.01491534,SNARC lie 1,2019_Apr_24_1610
3,lawyer_3.png,g,a,t,3,5,77,10,g,1,0.4509869257,22,f,22,d,60.02178155,SNARC lie 2,2019_Apr_18_1558
2,lawyer_2.png,a,g,t,2,3,51,1,a,1,0.4509872922,18,f,23,d,60.01702786,SNARC lie 2,2019_Apr_18_1207
1,cop_1.png,a,g,l,4,18,114,16,g,1,0.4509872922,20,f,25,d,60.00527894,SNARC lie 2,2019_Apr_18_1410
2,lawyer_2.png,a,g,t,4,22,118,1,g,1,0.4509883919,7,f,24,d,60.00171555,SNARC lie 1,2019_Apr_10_1010
6,lawyer_6.png,a,g,t,0,19,19,4,g,1,0.4509887584,7,f,24,d,60.00171555,SNARC lie 1,2019_Apr_10_1010
8,lawyer_8.png,a,g,t,4,22,118,6,g,1,0.4509905912,19,f,19,d,60.02878139,SNARC lie 1,2019_Apr_18_1302
3,lawyer_3.png,g,a,t,4,3,99,2,g,1,0.4509916909,22,f,22,d,60.02178155,SNARC lie 2,2019_Apr_18_1558
4,lawyer_4.png,a,g,t,1,21,45,11,g,1,0.4509920576,23,f,24,d,60.01161484,SNARC lie 1,2019_Apr_18_1730
3,lawyer_3.png,g,a,t,0,16,16,10,a,1,0.4509927905,38,f,21,d,60.00791881,SNARC lie 2,2019_May_16_1737
6,lawyer_6.png,a,g,t,4,21,117,12,a,1,0.4509931572,21,f,20,d,60.02323421,SNARC lie 1,2019_Apr_18_1508
4,lawyer_4.png,a,g,t,0,17,17,11,a,1,0.4509949898,37,m,24,d,60.1277463,SNARC lie 1,2019_May_16_1648
4,lawyer_4.png,a,g,t,0,15,15,11,a,1,0.4509953563,9,m,27,d,60.0087107,SNARC lie 1,2019_Apr_10_1212
7,lawyer_7.png,g,a,t,4,13,109,5,a,1,0.4509953563,37,m,24,d,60.1277463,SNARC lie 1,2019_May_16_1648
4,lawyer_4.png,a,g,t,0,21,21,11,g,1,0.4509953565,21,f,20,d,60.02323421,SNARC lie 1,2019_Apr_18_1508
3,lawyer_3.png,g,a,t,2,16,64,2,a,1,0.450995723,25,m,19,s,60.01491534,SNARC lie 1,2019_Apr_24_1610
8,cop_8.png,g,a,l,1,14,38,22,g,1,0.4509964561,11,f,21,d,60.03644348,SNARC lie 1,2019_Apr_10_1403
6,lawyer_6.png,a,g,t,1,2,26,4,a,1,0.4509975561,31,m,21,d,60.02297006,SNARC lie 1,2019_Apr_30_1303
6,lawyer_6.png,a,g,t,4,14,110,12,a,1,0.4509979223,15,f,19,d,60.03657565,SNARC lie 1,2019_Apr_17_1720
7,lawyer_7.png,g,a,t,1,1,25,13,a,1,0.4510001214,35,m,21,d,60.01808426,SNARC lie 1,2019_May_16_1301
3,lawyer_3.png,g,a,t,1,10,34,2,a,1,0.4510001217,7,f,24,d,60.00171555,SNARC lie 1,2019_Apr_10_1010
2,lawyer_2.png,a,g,t,1,8,32,1,a,1,0.4510019545,25,m,19,s,60.01491534,SNARC lie 1,2019_Apr_24_1610
6,lawyer_6.png,a,g,t,3,18,90,4,g,1,0.4510030542,23,f,24,d,60.01161484,SNARC lie 1,2019_Apr_18_1730
3,lawyer_3.png,g,a,t,1,14,38,2,g,1,0.4510030543,7,f,24,d,60.00171555,SNARC lie 1,2019_Apr_10_1010
8,lawyer_8.png,a,g,t,3,1,73,14,g,1,0.4510045205,23,f,24,d,60.01161484,SNARC lie 1,2019_Apr_18_1730
6,lawyer_6.png,a,g,t,3,9,81,12,a,1,0.4510070863,9,m,27,d,60.0087107,SNARC lie 1,2019_Apr_10_1212
4,lawyer_4.png,a,g,t,1,6,30,11,g,1,0.4510085526,7,f,24,d,60.00171555,SNARC lie 1,2019_Apr_10_1010
7,lawyer_7.png,g,a,t,0,18,18,13,a,1,0.4510092861,27,f,24,d,60.02257397,SNARC lie 1,2019_Apr_29_1114
7,lawyer_7.png,g,a,t,0,6,6,5,g,1,0.4510096521,34,f,23,s,60.01557549,SNARC lie 2,2019_May_16_1156
8,lawyer_8.png,a,g,t,1,17,41,14,a,1,0.4510122184,27,f,24,d,60.02257397,SNARC lie 1,2019_Apr_29_1114
7,lawyer_7.png,g,a,t,3,19,91,5,g,1,0.4510155171,37,m,24,d,60.1277463,SNARC lie 1,2019_May_16_1648
2,cop_2.png,g,a,l,4,18,114,17,g,1,0.4510155172,6,f,21,d,60.01676381,SNARC lie 2,2019_Apr_10_0911
2,lawyer_2.png,a,g,t,2,16,64,9,g,1,0.4510177164,33,f,20,d,60.02283803,SNARC lie 1,2019_Apr_30_1445
6,lawyer_6.png,a,g,t,4,10,106,12,g,1,0.4510184499,16,f,27,d,60.02680016,SNARC lie 2,2019_Apr_18_1009
9,lawyer_9.png,g,a,t,3,20,92,7,a,1,0.4510206492,35,m,21,d,60.01808426,SNARC lie 1,2019_May_16_1301
2,lawyer_2.png,a,g,t,4,11,107,1,g,1,0.4510213821,19,f,19,d,60.02878139,SNARC lie 1,2019_Apr_18_1302
4,lawyer_4.png,a,g,t,4,12,108,3,a,1,0.4510221153,14,m,21,d,60.00686277,SNARC lie 2,2019_Apr_17_1552
8,lawyer_8.png,a,g,t,4,19,115,14,a,1,0.4510224818,7,f,24,d,60.00171555,SNARC lie 1,2019_Apr_10_1010
4,lawyer_4.png,a,g,t,1,13,37,11,g,1,0.4510243149,34,f,23,s,60.01557549,SNARC lie 2,2019_May_16_1156
2,lawyer_2.png,a,g,t,3,4,76,9,g,1,0.4510268806,37,m,24,d,60.1277463,SNARC lie 1,2019_May_16_1648
7,lawyer_7.png,g,a,t,0,9,9,5,g,1,0.4510305463,24,f,21,m,59.99393041,SNARC lie 2,2019_Apr_24_0942
8,lawyer_8.png,a,g,t,0,14,14,14,g,1,0.4510327452,35,m,21,d,60.01808426,SNARC lie 1,2019_May_16_1301
8,lawyer_8.png,a,g,t,4,9,105,6,g,1,0.451034578,37,m,24,d,60.1277463,SNARC lie 1,2019_May_16_1648
6,lawyer_6.png,a,g,t,4,20,116,12,g,1,0.4510353114,8,m,27,d,60.02468695,SNARC lie 2,2019_Apr_10_1125
4,lawyer_4.png,a,g,t,3,11,83,3,g,1,0.4510360444,25,m,19,s,60.01491534,SNARC lie 1,2019_Apr_24_1610
8,lawyer_8.png,a,g,t,0,11,11,6,g,1,0.4510452084,23,f,24,d,60.01161484,SNARC lie 1,2019_Apr_18_1730
8,lawyer_8.png,a,g,t,2,13,61,14,a,1,0.4510459418,22,f,22,d,60.02178155,SNARC lie 2,2019_Apr_18_1558
2,lawyer_2.png,a,g,t,4,21,117,1,g,1,0.4510474079,33,f,20,d,60.02283803,SNARC lie 1,2019_Apr_30_1445
2,lawyer_2.png,a,g,t,0,9,9,1,a,1,0.4510488741,25,m,19,s,60.01491534,SNARC lie 1,2019_Apr_24_1610
4,lawyer_4.png,a,g,t,2,20,68,11,g,1,0.4510587713,8,m,27,d,60.02468695,SNARC lie 2,2019_Apr_10_1125
4,lawyer_4.png,a,g,t,3,9,81,11,g,1,0.4510613368,38,f,21,d,60.00791881,SNARC lie 2,2019_May_16_1737
6,lawyer_6.png,a,g,t,3,2,74,12,g,1,0.4510631701,33,f,20,d,60.02283803,SNARC lie 1,2019_Apr_30_1445
2,lawyer_2.png,a,g,t,2,1,49,1,g,1,0.4510756331,7,f,24,d,60.00171555,SNARC lie 1,2019_Apr_10_1010
4,lawyer_4.png,a,g,t,2,7,55,11,g,1,0.4510778324,29,m,20,d,60.00580693,SNARC lie 1,2019_Apr_30_1119
7,lawyer_7.png,g,a,t,0,16,16,5,a,1,0.4510851637,35,m,21,d,60.01808426,SNARC lie 1,2019_May_16_1301
1,lawyer_1.png,g,a,t,3,8,80,0,g,1,0.4511034916,7,f,24,d,60.00171555,SNARC lie 1,2019_Apr_10_1010
6,lawyer_6.png,a,g,t,0,23,23,4,g,1,0.4511056908,25,m,19,s,60.01491534,SNARC lie 1,2019_Apr_24_1610
1,lawyer_1.png,g,a,t,1,2,26,8,a,1,0.4511075239,37,m,24,d,60.1277463,SNARC lie 1,2019_May_16_1648
1,lawyer_1.png,g,a,t,2,22,70,0,g,1,0.4511265848,35,m,21,d,60.01808426,SNARC lie 1,2019_May_16_1301
6,lawyer_6.png,a,g,t,4,14,110,12,g,1,0.4511441796,21,f,20,d,60.02323421,SNARC lie 1,2019_Apr_18_1508
2,lawyer_2.png,a,g,t,0,15,15,9,g,1,0.4511500448,20,f,25,d,60.00527894,SNARC lie 2,2019_Apr_18_1410
9,lawyer_9.png,g,a,t,0,2,2,7,a,1,0.4511504113,35,m,21,d,60.01808426,SNARC lie 1,2019_May_16_1301
6,lawyer_6.png,a,g,t,3,10,82,4,g,1,0.4511507778,18,f,23,d,60.01702786,SNARC lie 2,2019_Apr_18_1207
9,lawyer_9.png,g,a,t,2,7,55,7,a,1,0.4511573759,22,f,22,d,60.02178155,SNARC lie 2,2019_Apr_18_1558
1,lawyer_1.png,g,a,t,3,0,72,8,a,1,0.4511650737,7,f,24,d,60.00171555,SNARC lie 1,2019_Apr_10_1010
3,lawyer_3.png,g,a,t,3,12,84,2,a,1,0.4512512153,23,f,24,d,60.01161484,SNARC lie 1,2019_Apr_18_1730
2,lawyer_2.png,a,g,t,0,23,23,1,a,1,0.4518824311,6,f,21,d,60.01676381,SNARC lie 2,2019_Apr_10_0911
7,lawyer_7.png,g,a,t,3,17,89,5,a,1,0.4667240698,25,m,19,s,60.01491534,SNARC lie 1,2019_Apr_24_1610
2,lawyer_2.png,a,g,t,4,5,101,1,g,1,0.4668003144,25,m,19,s,60.01491534,SNARC lie 1,2019_Apr_24_1610
4,cop_4.png,g,a,l,1,0,24,19,a,1,0.4669025843,37,m,24,d,60.1277463,SNARC lie 1,2019_May_16_1648
9,lawyer_9.png,g,a,t,0,2,2,15,a,1,0.466908816,13,f,19,d,60.00092376,SNARC lie 1,2019_Apr_17_1458
8,lawyer_8.png,a,g,t,2,23,71,14,a,1,0.466923845,25,m,19,s,60.01491534,SNARC lie 1,2019_Apr_24_1610
9,lawyer_9.png,g,a,t,0,9,9,7,g,1,0.4669396072,27,f,24,d,60.02257397,SNARC lie 1,2019_Apr_29_1114
4,lawyer_4.png,a,g,t,3,18,90,11,a,1,0.466942173,23,f,24,d,60.01161484,SNARC lie 1,2019_Apr_18_1730
8,lawyer_8.png,a,g,t,3,7,79,14,g,1,0.4670455428,4,f,24,d,60.03340485,SNARC lie 2,2019_Apr_09_1700
6,lawyer_6.png,a,g,t,3,3,75,12,g,1,0.4671764047,2,f,28,d,60.06102824,SNARC lie 2,2019_Apr_04_1721
4,lawyer_4.png,a,g,t,4,2,98,11,g,1,0.4672013307,4,f,24,d,60.03340485,SNARC lie 2,2019_Apr_09_1700
2,lawyer_2.png,a,g,t,0,15,15,1,a,1,0.4672288226,5,f,22,d,60.06486318,SNARC lie 1,2019_Apr_09_1752
9,lawyer_9.png,g,a,t,2,12,60,7,g,1,0.4673332922,5,f,22,d,60.06486318,SNARC lie 1,2019_Apr_09_1752
4,lawyer_4.png,a,g,t,3,16,88,11,g,1,0.4673413566,2,f,28,d,60.06102824,SNARC lie 2,2019_Apr_04_1721
8,lawyer_8.png,a,g,t,1,2,26,6,g,1,0.4674696525,8,m,27,d,60.02468695,SNARC lie 2,2019_Apr_10_1125
1,lawyer_1.png,g,a,t,2,3,51,0,a,1,0.4674993437,25,m,19,s,60.01491534,SNARC lie 1,2019_Apr_24_1610
1,lawyer_1.png,g,a,t,3,19,91,8,a,1,0.4675077747,5,f,22,d,60.06486318,SNARC lie 1,2019_Apr_09_1752
3,lawyer_3.png,g,a,t,2,13,61,2,g,1,0.4675202378,5,f,22,d,60.06486318,SNARC lie 1,2019_Apr_09_1752
6,lawyer_6.png,a,g,t,0,18,18,4,a,1,0.4675301348,25,m,19,s,60.01491534,SNARC lie 1,2019_Apr_24_1610
1,lawyer_1.png,g,a,t,0,14,14,0,a,1,0.4675381989,38,f,21,d,60.00791881,SNARC lie 2,2019_May_16_1737
8,lawyer_8.png,a,g,t,0,3,3,6,a,1,0.4675392988,27,f,24,d,60.02257397,SNARC lie 1,2019_Apr_29_1114
8,lawyer_8.png,a,g,t,2,12,60,6,g,1,0.467554694,33,f,20,d,60.02283803,SNARC lie 1,2019_Apr_30_1445
6,lawyer_6.png,a,g,t,2,6,54,12,a,1,0.4675546945,34,f,23,s,60.01557549,SNARC lie 2,2019_May_16_1156
3,lawyer_3.png,g,a,t,1,7,31,10,a,1,0.4675576268,38,f,21,d,60.00791881,SNARC lie 2,2019_May_16_1737
4,lawyer_4.png,a,g,t,0,16,16,3,g,1,0.4675594596,3,f,20,d,60.01201092,SNARC lie 1,2019_Apr_09_1542
4,cop_4.png,g,a,l,1,7,31,19,g,1,0.4675678904,16,f,27,d,60.02680016,SNARC lie 2,2019_Apr_18_1009
6,lawyer_6.png,a,g,t,0,6,6,12,a,1,0.4675682571,22,f,22,d,60.02178155,SNARC lie 2,2019_Apr_18_1558
6,lawyer_6.png,a,g,t,0,1,1,4,g,1,0.4675854854,22,f,22,d,60.02178155,SNARC lie 2,2019_Apr_18_1558
3,lawyer_3.png,g,a,t,1,14,38,2,g,1,0.4675854854,36,f,20,d,60.02508316,SNARC lie 2,2019_May_16_1508
1,lawyer_1.png,g,a,t,4,11,107,8,a,1,0.4675865851,7,f,24,d,60.00171555,SNARC lie 1,2019_Apr_10_1010
1,lawyer_1.png,g,a,t,1,1,25,8,g,1,0.4675873183,5,f,22,d,60.06486318,SNARC lie 1,2019_Apr_09_1752
4,lawyer_4.png,a,g,t,3,11,83,3,g,1,0.467590984,20,f,25,d,60.00527894,SNARC lie 2,2019_Apr_18_1410
2,cop_2.png,g,a,l,4,8,104,17,a,1,0.4675924503,38,f,21,d,60.00791881,SNARC lie 2,2019_May_16_1737
9,lawyer_9.png,g,a,t,1,0,24,15,a,1,0.4675928168,36,f,20,d,60.02508316,SNARC lie 2,2019_May_16_1508
1,lawyer_1.png,g,a,t,4,19,115,8,a,1,0.4675931833,23,f,24,d,60.01161484,SNARC lie 1,2019_Apr_18_1730
6,lawyer_6.png,a,g,t,4,12,108,4,g,1,0.467595016,9,m,27,d,60.0087107,SNARC lie 1,2019_Apr_10_1212
7,lawyer_7.png,g,a,t,4,1,97,13,a,1,0.4675950161,35,m,21,d,60.01808426,SNARC lie 1,2019_May_16_1301
3,lawyer_3.png,g,a,t,1,20,44,2,a,1,0.4675972152,23,f,24,d,60.01161484,SNARC lie 1,2019_Apr_18_1730
2,lawyer_2.png,a,g,t,2,14,62,1,g,1,0.4675979484,19,f,19,d,60.02878139,SNARC lie 1,2019_Apr_18_1302
8,lawyer_8.png,a,g,t,0,23,23,6,a,1,0.4675983151,21,f,20,d,60.02323421,SNARC lie 1,2019_Apr_18_1508
2,lawyer_2.png,a,g,t,1,19,43,1,g,1,0.4675986818,37,m,24,d,60.1277463,SNARC lie 1,2019_May_16_1648
4,lawyer_4.png,a,g,t,2,14,62,11,a,1,0.4675994143,38,f,21,d,60.00791881,SNARC lie 2,2019_May_16_1737
6,lawyer_6.png,a,g,t,0,4,4,12,g,1,0.4676005142,29,m,20,d,60.00580693,SNARC lie 1,2019_Apr_30_1119
4,lawyer_4.png,a,g,t,4,15,111,3,g,1,0.4676049128,33,f,20,d,60.02283803,SNARC lie 1,2019_Apr_30_1445
9,lawyer_9.png,g,a,t,2,18,66,15,a,1,0.4676067459,25,m,19,s,60.01491534,SNARC lie 1,2019_Apr_24_1610
3,lawyer_3.png,g,a,t,2,19,67,10,a,1,0.4676078456,25,m,19,s,60.01491534,SNARC lie 1,2019_Apr_24_1610
4,lawyer_4.png,a,g,t,0,12,12,11,a,1,0.467608579,31,m,21,d,60.02297006,SNARC lie 1,2019_Apr_30_1303
4,lawyer_4.png,a,g,t,4,10,106,11,g,1,0.4676096784,30,m,26,d,60.02297006,SNARC lie 2,2019_Apr_30_1211
6,lawyer_6.png,a,g,t,3,3,75,4,a,1,0.4676096784,30,m,26,d,60.02297006,SNARC lie 2,2019_Apr_30_1211
8,lawyer_8.png,a,g,t,4,22,118,6,a,1,0.4676104118,34,f,23,s,60.01557549,SNARC lie 2,2019_May_16_1156
1,lawyer_1.png,g,a,t,2,16,64,8,a,1,0.4676111445,24,f,21,m,59.99393041,SNARC lie 2,2019_Apr_24_0942
6,lawyer_6.png,a,g,t,4,13,109,4,a,1,0.4676137106,22,f,22,d,60.02178155,SNARC lie 2,2019_Apr_18_1558
4,lawyer_4.png,a,g,t,2,17,65,11,a,1,0.4676170095,23,f,24,d,60.01161484,SNARC lie 1,2019_Apr_18_1730
8,lawyer_8.png,a,g,t,4,11,107,6,g,1,0.4676173762,35,m,21,d,60.01808426,SNARC lie 1,2019_May_16_1301
8,lawyer_8.png,a,g,t,2,1,49,6,g,1,0.4676181092,32,f,21,d,60.00791881,SNARC lie 2,2019_Apr_30_1358
1,lawyer_1.png,g,a,t,3,19,91,8,a,1,0.4676184757,35,m,21,d,60.01808426,SNARC lie 1,2019_May_16_1301
6,lawyer_6.png,a,g,t,0,19,19,12,g,1,0.4676217749,14,m,21,d,60.00686277,SNARC lie 2,2019_Apr_17_1552
9,lawyer_9.png,g,a,t,2,19,67,15,a,1,0.4676228748,36,f,20,d,60.02508316,SNARC lie 2,2019_May_16_1508
3,lawyer_3.png,g,a,t,3,13,85,10,a,1,0.4676239742,7,f,24,d,60.00171555,SNARC lie 1,2019_Apr_10_1010
2,lawyer_2.png,a,g,t,0,14,14,9,a,1,0.4676239742,9,m,27,d,60.0087107,SNARC lie 1,2019_Apr_10_1212
6,cop_6.png,g,a,l,4,0,96,20,a,1,0.4676243409,25,m,19,s,60.01491534,SNARC lie 1,2019_Apr_24_1610
4,lawyer_4.png,a,g,t,3,1,73,11,a,1,0.4676272732,17,f,26,d,60.03816113,SNARC lie 1,2019_Apr_18_1109
9,lawyer_9.png,g,a,t,4,3,99,7,g,1,0.4676272732,23,f,24,d,60.01161484,SNARC lie 1,2019_Apr_18_1730
8,cop_8.png,g,a,l,2,10,58,22,g,1,0.4676294726,8,m,27,d,60.02468695,SNARC lie 2,2019_Apr_10_1125
1,lawyer_1.png,g,a,t,0,9,9,0,a,1,0.4676294727,18,f,23,d,60.01702786,SNARC lie 2,2019_Apr_18_1207
2,lawyer_2.png,a,g,t,0,10,10,1,a,1,0.4676302057,27,f,24,d,60.02257397,SNARC lie 1,2019_Apr_29_1114
4,lawyer_4.png,a,g,t,0,21,21,11,a,1,0.4676305722,32,f,21,d,60.00791881,SNARC lie 2,2019_Apr_30_1358
8,lawyer_8.png,a,g,t,2,0,48,14,g,1,0.4676309391,35,m,21,d,60.01808426,SNARC lie 1,2019_May_16_1301
9,lawyer_9.png,g,a,t,0,12,12,7,a,1,0.4676313053,7,f,24,d,60.00171555,SNARC lie 1,2019_Apr_10_1010
2,lawyer_2.png,a,g,t,4,5,101,1,a,1,0.4676316719,7,f,24,d,60.00171555,SNARC lie 1,2019_Apr_10_1010
8,lawyer_8.png,a,g,t,1,23,47,6,g,1,0.4676320385,35,m,21,d,60.01808426,SNARC lie 1,2019_May_16_1301
2,lawyer_2.png,a,g,t,2,8,56,9,a,1,0.4676331382,3,f,20,d,60.01201092,SNARC lie 1,2019_Apr_09_1542
6,lawyer_6.png,a,g,t,0,3,3,4,a,1,0.4676331382,24,f,21,m,59.99393041,SNARC lie 2,2019_Apr_24_0942
6,lawyer_6.png,a,g,t,0,23,23,4,a,1,0.4676335049,18,f,23,d,60.01702786,SNARC lie 2,2019_Apr_18_1207
7,lawyer_7.png,g,a,t,2,12,60,13,g,1,0.4676335049,32,f,21,d,60.00791881,SNARC lie 2,2019_Apr_30_1358
4,lawyer_4.png,a,g,t,2,19,67,3,g,1,0.4676346045,19,f,19,d,60.02878139,SNARC lie 1,2019_Apr_18_1302
2,lawyer_2.png,a,g,t,2,23,71,9,g,1,0.467634971,23,f,24,d,60.01161484,SNARC lie 1,2019_Apr_18_1730
2,lawyer_2.png,a,g,t,1,11,35,1,a,1,0.4676371703,7,f,24,d,60.00171555,SNARC lie 1,2019_Apr_10_1010
4,lawyer_4.png,a,g,t,4,18,114,11,a,1,0.4676375368,23,f,24,d,60.01161484,SNARC lie 1,2019_Apr_18_1730
6,lawyer_6.png,a,g,t,4,2,98,4,a,1,0.4676379035,22,f,22,d,60.02178155,SNARC lie 2,2019_Apr_18_1558
3,lawyer_3.png,g,a,t,1,7,31,10,a,1,0.4676379035,35,m,21,d,60.01808426,SNARC lie 1,2019_May_16_1301
8,lawyer_8.png,a,g,t,1,11,35,14,a,1,0.4676404693,37,m,24,d,60.1277463,SNARC lie 1,2019_May_16_1648
8,lawyer_8.png,a,g,t,3,8,80,14,g,1,0.4676408359,8,m,27,d,60.02468695,SNARC lie 2,2019_Apr_10_1125
6,lawyer_6.png,a,g,t,1,19,43,12,g,1,0.4676415692,35,m,21,d,60.01808426,SNARC lie 1,2019_May_16_1301
7,lawyer_7.png,g,a,t,4,23,119,13,g,1,0.4676423022,22,f,22,d,60.02178155,SNARC lie 2,2019_Apr_18_1558
8,lawyer_8.png,a,g,t,2,11,59,6,g,1,0.4676426686,33,f,20,d,60.02283803,SNARC lie 1,2019_Apr_30_1445
9,lawyer_9.png,g,a,t,0,12,12,15,a,1,0.4676430353,25,m,19,s,60.01491534,SNARC lie 1,2019_Apr_24_1610
7,lawyer_7.png,g,a,t,2,17,65,13,g,1,0.4676437681,37,m,24,d,60.1277463,SNARC lie 1,2019_May_16_1648
6,lawyer_6.png,a,g,t,0,12,12,12,g,1,0.4676437683,18,f,23,d,60.01702786,SNARC lie 2,2019_Apr_18_1207
4,lawyer_4.png,a,g,t,3,14,86,11,g,1,0.467644135,31,m,21,d,60.02297006,SNARC lie 1,2019_Apr_30_1303
4,lawyer_4.png,a,g,t,0,8,8,11,g,1,0.4676456011,7,f,24,d,60.00171555,SNARC lie 1,2019_Apr_10_1010
8,lawyer_8.png,a,g,t,1,2,26,6,g,1,0.4676456011,25,m,19,s,60.01491534,SNARC lie 1,2019_Apr_24_1610
8,lawyer_8.png,a,g,t,0,13,13,6,a,1,0.4676456013,7,f,24,d,60.00171555,SNARC lie 1,2019_Apr_10_1010
2,lawyer_2.png,a,g,t,2,20,68,9,g,1,0.4676474341,7,f,24,d,60.00171555,SNARC lie 1,2019_Apr_10_1010
2,lawyer_2.png,a,g,t,0,12,12,9,g,1,0.4676481672,37,m,24,d,60.1277463,SNARC lie 1,2019_May_16_1648
2,lawyer_2.png,a,g,t,1,18,42,1,a,1,0.4676489001,37,m,24,d,60.1277463,SNARC lie 1,2019_May_16_1648
6,lawyer_6.png,a,g,t,2,4,52,4,g,1,0.4676492668,20,f,25,d,60.00527894,SNARC lie 2,2019_Apr_18_1410
4,cop_4.png,g,a,l,0,2,2,19,a,1,0.4676496331,35,m,21,d,60.01808426,SNARC lie 1,2019_May_16_1301
2,lawyer_2.png,a,g,t,2,4,52,9,g,1,0.4676496333,22,f,22,d,60.02178155,SNARC lie 2,2019_Apr_18_1558
8,lawyer_8.png,a,g,t,0,14,14,14,a,1,0.4676496335,18,f,23,d,60.01702786,SNARC lie 2,2019_Apr_18_1207
6,lawyer_6.png,a,g,t,3,23,95,12,g,1,0.4676496335,23,f,24,d,60.01161484,SNARC lie 1,2019_Apr_18_1730
2,lawyer_2.png,a,g,t,4,18,114,9,a,1,0.4676499998,22,f,22,d,60.02178155,SNARC lie 2,2019_Apr_18_1558
8,lawyer_8.png,a,g,t,4,23,119,14,g,1,0.467650733,17,f,26,d,60.03816113,SNARC lie 1,2019_Apr_18_1109
8,lawyer_8.png,a,g,t,3,1,73,14,g,1,0.467650733,37,m,24,d,60.1277463,SNARC lie 1,2019_May_16_1648
8,lawyer_8.png,a,g,t,3,12,84,6,g,1,0.467650733,37,m,24,d,60.1277463,SNARC lie 1,2019_May_16_1648
1,lawyer_1.png,g,a,t,4,3,99,8,a,1,0.4676507332,24,f,21,m,59.99393041,SNARC lie 2,2019_Apr_24_0942
7,lawyer_7.png,g,a,t,0,7,7,5,a,1,0.4676514661,7,f,24,d,60.00171555,SNARC lie 1,2019_Apr_10_1010
3,lawyer_3.png,g,a,t,4,2,98,10,a,1,0.4676518327,7,f,24,d,60.00171555,SNARC lie 1,2019_Apr_10_1010
9,lawyer_9.png,g,a,t,4,23,119,7,a,1,0.4676518327,7,f,24,d,60.00171555,SNARC lie 1,2019_Apr_10_1010
8,lawyer_8.png,a,g,t,4,4,100,14,g,1,0.4676518328,37,m,24,d,60.1277463,SNARC lie 1,2019_May_16_1648
3,lawyer_3.png,g,a,t,3,7,79,2,a,1,0.4676521993,35,m,21,d,60.01808426,SNARC lie 1,2019_May_16_1301
8,lawyer_8.png,a,g,t,1,7,31,6,g,1,0.4676525658,26,f,24,d,60.01636775,SNARC lie 2,2019_Apr_24_1700
3,lawyer_3.png,g,a,t,3,4,76,2,g,1,0.4676529323,38,f,21,d,60.00791881,SNARC lie 2,2019_May_16_1737
8,lawyer_8.png,a,g,t,3,7,79,6,g,1,0.4676532988,33,f,20,d,60.02283803,SNARC lie 1,2019_Apr_30_1445
4,lawyer_4.png,a,g,t,4,2,98,3,g,1,0.4676558648,22,f,22,d,60.02178155,SNARC lie 2,2019_Apr_18_1558
8,lawyer_8.png,a,g,t,3,20,92,6,a,1,0.467655865,37,m,24,d,60.1277463,SNARC lie 1,2019_May_16_1648
9,lawyer_9.png,g,a,t,2,7,55,7,g,1,0.4676562315,13,f,19,d,60.00092376,SNARC lie 1,2019_Apr_17_1458
4,lawyer_4.png,a,g,t,4,1,97,11,g,1,0.4676562315,31,m,21,d,60.02297006,SNARC lie 1,2019_Apr_30_1303
7,lawyer_7.png,g,a,t,4,15,111,13,a,1,0.467656598,25,m,19,s,60.01491534,SNARC lie 1,2019_Apr_24_1610
1,cop_1.png,a,g,l,3,0,72,16,a,1,0.4676584308,8,m,27,d,60.02468695,SNARC lie 2,2019_Apr_10_1125
7,lawyer_7.png,g,a,t,2,17,65,13,a,1,0.4676587973,21,f,20,d,60.02323421,SNARC lie 1,2019_Apr_18_1508
6,lawyer_6.png,a,g,t,0,14,14,4,g,1,0.4676587975,17,f,26,d,60.03816113,SNARC lie 1,2019_Apr_18_1109
8,lawyer_8.png,a,g,t,4,1,97,14,a,1,0.467659164,9,m,27,d,60.0087107,SNARC lie 1,2019_Apr_10_1212
6,lawyer_6.png,a,g,t,2,5,53,4,g,1,0.467659164,23,f,24,d,60.01161484,SNARC lie 1,2019_Apr_18_1730
6,lawyer_6.png,a,g,t,1,1,25,12,a,1,0.467659164,25,m,19,s,60.01491534,SNARC lie 1,2019_Apr_24_1610
8,lawyer_8.png,a,g,t,2,18,66,14,a,1,0.4676591642,35,m,21,d,60.01808426,SNARC lie 1,2019_May_16_1301
8,lawyer_8.png,a,g,t,0,19,19,6,g,1,0.4676595302,35,m,21,d,60.01808426,SNARC lie 1,2019_May_16_1301
4,lawyer_4.png,a,g,t,3,16,88,3,a,1,0.4676595305,14,m,21,d,60.00686277,SNARC lie 2,2019_Apr_17_1552
2,lawyer_2.png,a,g,t,4,4,100,1,g,1,0.4676595305,22,f,22,d,60.02178155,SNARC lie 2,2019_Apr_18_1558
3,cop_3.png,a,g,l,3,4,76,18,a,1,0.4676598971,8,m,27,d,60.02468695,SNARC lie 2,2019_Apr_10_1125
1,lawyer_1.png,g,a,t,1,6,30,8,a,1,0.467662463,36,f,20,d,60.02508316,SNARC lie 2,2019_May_16_1508
6,lawyer_6.png,a,g,t,1,12,36,4,g,1,0.4676631959,37,m,24,d,60.1277463,SNARC lie 1,2019_May_16_1648
3,lawyer_3.png,g,a,t,4,17,113,10,a,1,0.4676639289,37,m,24,d,60.1277463,SNARC lie 1,2019_May_16_1648
3,lawyer_3.png,g,a,t,0,1,1,10,a,1,0.4676639291,23,f,24,d,60.01161484,SNARC lie 1,2019_Apr_18_1730
2,cop_2.png,g,a,l,2,18,66,17,a,1,0.4676642958,21,f,20,d,60.02323421,SNARC lie 1,2019_Apr_18_1508
2,lawyer_2.png,a,g,t,1,14,38,9,a,1,0.4676646623,22,f,22,d,60.02178155,SNARC lie 2,2019_Apr_18_1558
8,lawyer_8.png,a,g,t,0,7,7,14,a,1,0.4676653955,22,f,22,d,60.02178155,SNARC lie 2,2019_Apr_18_1558
8,lawyer_8.png,a,g,t,2,22,70,6,g,1,0.4676653955,25,m,19,s,60.01491534,SNARC lie 1,2019_Apr_24_1610
4,lawyer_4.png,a,g,t,0,17,17,3,g,1,0.4676657619,25,m,19,s,60.01491534,SNARC lie 1,2019_Apr_24_1610
1,lawyer_1.png,g,a,t,0,4,4,8,a,1,0.4676664951,22,f,22,d,60.02178155,SNARC lie 2,2019_Apr_18_1558
4,lawyer_4.png,a,g,t,4,19,115,3,g,1,0.4676672283,25,m,19,s,60.01491534,SNARC lie 1,2019_Apr_24_1610
8,lawyer_8.png,a,g,t,0,8,8,14,g,1,0.4676679613,23,f,24,d,60.01161484,SNARC lie 1,2019_Apr_18_1730
2,lawyer_2.png,a,g,t,3,10,82,9,g,1,0.467668328,22,f,22,d,60.02178155,SNARC lie 2,2019_Apr_18_1558
6,lawyer_6.png,a,g,t,4,23,119,12,a,1,0.467668328,25,m,19,s,60.01491534,SNARC lie 1,2019_Apr_24_1610
2,lawyer_2.png,a,g,t,1,3,27,1,g,1,0.467668328,33,f,20,d,60.02283803,SNARC lie 1,2019_Apr_30_1445
4,lawyer_4.png,a,g,t,2,1,49,3,g,1,0.4676690609,29,m,20,d,60.00580693,SNARC lie 1,2019_Apr_30_1119
4,lawyer_4.png,a,g,t,2,8,56,3,g,1,0.4676694274,33,f,20,d,60.02283803,SNARC lie 1,2019_Apr_30_1445
2,lawyer_2.png,a,g,t,1,14,38,1,a,1,0.4676697943,37,m,24,d,60.1277463,SNARC lie 1,2019_May_16_1648
2,lawyer_2.png,a,g,t,1,6,30,1,g,1,0.4676701608,26,f,24,d,60.01636775,SNARC lie 2,2019_Apr_24_1700
8,lawyer_8.png,a,g,t,1,15,39,6,g,1,0.4676716267,37,m,24,d,60.1277463,SNARC lie 1,2019_May_16_1648
1,cop_1.png,a,g,l,3,0,72,16,a,1,0.4676727267,11,f,21,d,60.03644348,SNARC lie 1,2019_Apr_10_1403
2,lawyer_2.png,a,g,t,4,16,112,9,a,1,0.4676738263,9,m,27,d,60.0087107,SNARC lie 1,2019_Apr_10_1212
1,lawyer_1.png,g,a,t,3,14,86,8,a,1,0.4676738265,36,f,20,d,60.02508316,SNARC lie 2,2019_May_16_1508
8,lawyer_8.png,a,g,t,1,1,25,6,a,1,0.4676741927,23,f,24,d,60.01161484,SNARC lie 1,2019_Apr_18_1730
8,lawyer_8.png,a,g,t,3,18,90,14,g,1,0.467674193,14,m,21,d,60.00686277,SNARC lie 2,2019_Apr_17_1552
6,lawyer_6.png,a,g,t,2,7,55,4,g,1,0.4676749259,25,m,19,s,60.01491534,SNARC lie 1,2019_Apr_24_1610
4,lawyer_4.png,a,g,t,2,12,60,3,a,1,0.4676771252,31,m,21,d,60.02297006,SNARC lie 1,2019_Apr_30_1303
8,lawyer_8.png,a,g,t,1,16,40,6,g,1,0.4676771254,7,f,24,d,60.00171555,SNARC lie 1,2019_Apr_10_1010
8,cop_8.png,g,a,l,1,23,47,22,a,1,0.4676771257,38,f,21,d,60.00791881,SNARC lie 2,2019_May_16_1737
4,lawyer_4.png,a,g,t,2,22,70,11,a,1,0.4676774922,37,m,24,d,60.1277463,SNARC lie 1,2019_May_16_1648
9,lawyer_9.png,g,a,t,3,1,73,15,a,1,0.4676796913,19,f,19,d,60.02878139,SNARC lie 1,2019_Apr_18_1302
1,lawyer_1.png,g,a,t,1,22,46,0,g,1,0.4676807909,23,f,24,d,60.01161484,SNARC lie 1,2019_Apr_18_1730
4,lawyer_4.png,a,g,t,1,1,25,3,a,1,0.4676807909,31,m,21,d,60.02297006,SNARC lie 1,2019_Apr_30_1303
4,lawyer_4.png,a,g,t,4,9,105,11,g,1,0.4676811575,8,m,27,d,60.02468695,SNARC lie 2,2019_Apr_10_1125
2,lawyer_2.png,a,g,t,3,19,91,1,g,1,0.4676822572,8,m,27,d,60.02468695,SNARC lie 2,2019_Apr_10_1125
2,lawyer_2.png,a,g,t,3,11,83,1,a,1,0.4676822573,37,m,24,d,60.1277463,SNARC lie 1,2019_May_16_1648
7,lawyer_7.png,g,a,t,2,21,69,5,a,1,0.4676855563,23,f,24,d,60.01161484,SNARC lie 1,2019_Apr_18_1730
2,lawyer_2.png,a,g,t,3,15,87,1,a,1,0.4676859227,25,m,19,s,60.01491534,SNARC lie 1,2019_Apr_24_1610
2,lawyer_2.png,a,g,t,0,6,6,9,a,1,0.4676862895,34,f,23,s,60.01557549,SNARC lie 2,2019_May_16_1156
2,lawyer_2.png,a,g,t,0,18,18,1,g,1,0.4676881221,26,f,24,d,60.01636775,SNARC lie 2,2019_Apr_24_1700
4,lawyer_4.png,a,g,t,4,17,113,3,g,1,0.4676917878,8,m,27,d,60.02468695,SNARC lie 2,2019_Apr_10_1125
6,lawyer_6.png,a,g,t,1,18,42,12,g,1,0.4676928874,33,f,20,d,60.02283803,SNARC lie 1,2019_Apr_30_1445
4,lawyer_4.png,a,g,t,4,5,101,3,g,1,0.4676936206,14,m,21,d,60.00686277,SNARC lie 2,2019_Apr_17_1552
8,lawyer_8.png,a,g,t,2,10,58,14,g,1,0.4676994856,25,m,19,s,60.01491534,SNARC lie 1,2019_Apr_24_1610
7,lawyer_7.png,g,a,t,3,8,80,5,a,1,0.4677002187,7,f,24,d,60.00171555,SNARC lie 1,2019_Apr_10_1010
4,lawyer_4.png,a,g,t,4,4,100,3,a,1,0.4677005848,37,m,24,d,60.1277463,SNARC lie 1,2019_May_16_1648
8,lawyer_8.png,a,g,t,4,6,102,6,g,1,0.4677046174,31,m,21,d,60.02297006,SNARC lie 1,2019_Apr_30_1303
7,lawyer_7.png,g,a,t,2,0,48,13,g,1,0.4677053504,37,m,24,d,60.1277463,SNARC lie 1,2019_May_16_1648
6,lawyer_6.png,a,g,t,0,20,20,12,a,1,0.4677108489,31,m,21,d,60.02297006,SNARC lie 1,2019_Apr_30_1303
8,lawyer_8.png,a,g,t,0,5,5,14,a,1,0.4677148811,37,m,24,d,60.1277463,SNARC lie 1,2019_May_16_1648
1,lawyer_1.png,g,a,t,1,3,27,0,g,1,0.4677225788,7,f,24,d,60.00171555,SNARC lie 1,2019_Apr_10_1010
4,lawyer_4.png,a,g,t,2,5,53,11,g,1,0.4677244117,31,m,21,d,60.02297006,SNARC lie 1,2019_Apr_30_1303
4,lawyer_4.png,a,g,t,2,11,59,3,g,1,0.4677247782,25,m,19,s,60.01491534,SNARC lie 1,2019_Apr_24_1610
2,lawyer_2.png,a,g,t,2,21,69,9,g,1,0.4677335755,33,f,20,d,60.02283803,SNARC lie 1,2019_Apr_30_1445
4,lawyer_4.png,a,g,t,4,13,109,11,g,1,0.4677343084,33,f,20,d,60.02283803,SNARC lie 1,2019_Apr_30_1445
2,lawyer_2.png,a,g,t,2,16,64,1,g,1,0.4677372412,17,f,26,d,60.03816113,SNARC lie 1,2019_Apr_18_1109
4,lawyer_4.png,a,g,t,0,12,12,3,a,1,0.4677372412,35,m,21,d,60.01808426,SNARC lie 1,2019_May_16_1301
2,lawyer_2.png,a,g,t,4,7,103,9,g,1,0.4677442058,22,f,22,d,60.02178155,SNARC lie 2,2019_Apr_18_1558
3,lawyer_3.png,g,a,t,2,6,54,10,g,1,0.4677453055,7,f,24,d,60.00171555,SNARC lie 1,2019_Apr_10_1010
9,cop_9.png,a,g,l,3,10,82,23,g,1,0.4677453055,32,f,21,d,60.00791881,SNARC lie 2,2019_Apr_30_1358
3,lawyer_3.png,g,a,t,3,0,72,10,a,1,0.467754103,20,f,25,d,60.00527894,SNARC lie 2,2019_Apr_18_1410
7,lawyer_7.png,g,a,t,2,18,66,5,g,1,0.4678193508,37,m,24,d,60.1277463,SNARC lie 1,2019_May_16_1648
2,lawyer_2.png,a,g,t,4,5,101,1,g,1,0.4678391448,7,f,24,d,60.00171555,SNARC lie 1,2019_Apr_10_1010
9,lawyer_9.png,g,a,t,1,2,26,7,a,1,0.467840611,23,f,24,d,60.01161484,SNARC lie 1,2019_Apr_18_1730
2,lawyer_2.png,a,g,t,1,1,25,1,a,1,0.4678710354,38,f,21,d,60.00791881,SNARC lie 2,2019_May_16_1737
4,lawyer_4.png,a,g,t,1,9,33,3,g,1,0.4678908298,37,m,24,d,60.1277463,SNARC lie 1,2019_May_16_1648
6,lawyer_6.png,a,g,t,3,0,72,12,g,1,0.4678930291,35,m,21,d,60.01808426,SNARC lie 1,2019_May_16_1301
8,lawyer_8.png,a,g,t,1,10,34,6,g,1,0.4679843024,17,f,26,d,60.03816113,SNARC lie 1,2019_Apr_18_1109
9,lawyer_9.png,g,a,t,4,7,103,15,g,1,0.4681448555,15,f,19,d,60.03657565,SNARC lie 1,2019_Apr_17_1720
9,lawyer_9.png,g,a,t,0,2,2,7,g,1,0.468524978,32,f,21,d,60.00791881,SNARC lie 2,2019_Apr_30_1358
2,lawyer_2.png,a,g,t,4,18,114,1,a,1,0.4686378785,5,f,22,d,60.06486318,SNARC lie 1,2019_Apr_09_1752
9,lawyer_9.png,g,a,t,3,3,75,7,g,1,0.4710564399,14,m,21,d,60.00686277,SNARC lie 2,2019_Apr_17_1552
9,lawyer_9.png,g,a,t,3,7,79,7,a,1,0.4832636137,25,m,19,s,60.01491534,SNARC lie 1,2019_Apr_24_1610
6,lawyer_6.png,a,g,t,0,1,1,12,g,1,0.483474019,13,f,19,d,60.00092376,SNARC lie 1,2019_Apr_17_1458
8,lawyer_8.png,a,g,t,3,2,74,6,a,1,0.4835432987,30,m,26,d,60.02297006,SNARC lie 2,2019_Apr_30_1211
4,lawyer_4.png,a,g,t,2,5,53,11,g,1,0.4835498967,7,f,24,d,60.00171555,SNARC lie 1,2019_Apr_10_1010
1,lawyer_1.png,g,a,t,2,4,52,8,a,1,0.4835528294,23,f,24,d,60.01161484,SNARC lie 1,2019_Apr_18_1730
1,lawyer_1.png,g,a,t,1,8,32,0,g,1,0.4835546621,5,f,22,d,60.06486318,SNARC lie 1,2019_Apr_09_1752
7,lawyer_7.png,g,a,t,3,13,85,13,a,1,0.4835561283,21,f,20,d,60.02323421,SNARC lie 1,2019_Apr_18_1508
6,lawyer_6.png,a,g,t,2,21,69,4,a,1,0.4835594273,22,f,22,d,60.02178155,SNARC lie 2,2019_Apr_18_1558
6,lawyer_6.png,a,g,t,3,1,73,4,g,1,0.4835612602,34,f,23,s,60.01557549,SNARC lie 2,2019_May_16_1156
9,lawyer_9.png,g,a,t,0,23,23,7,a,1,0.4835641929,35,m,21,d,60.01808426,SNARC lie 1,2019_May_16_1301
8,lawyer_8.png,a,g,t,0,21,21,14,g,1,0.4835667587,23,f,24,d,60.01161484,SNARC lie 1,2019_Apr_18_1730
2,lawyer_2.png,a,g,t,0,14,14,1,g,1,0.4835682248,22,f,22,d,60.02178155,SNARC lie 2,2019_Apr_18_1558
2,lawyer_2.png,a,g,t,3,15,87,9,g,1,0.4835729899,21,f,20,d,60.02323421,SNARC lie 1,2019_Apr_18_1508
7,lawyer_7.png,g,a,t,2,10,58,5,a,1,0.4835740898,25,m,19,s,60.01491534,SNARC lie 1,2019_Apr_24_1610
6,lawyer_6.png,a,g,t,2,7,55,4,g,1,0.4835744563,19,f,19,d,60.02878139,SNARC lie 1,2019_Apr_18_1302
7,lawyer_7.png,g,a,t,2,1,49,5,a,1,0.4835762889,35,m,21,d,60.01808426,SNARC lie 1,2019_May_16_1301
6,lawyer_6.png,a,g,t,4,0,96,4,a,1,0.483581054,38,f,21,d,60.00791881,SNARC lie 2,2019_May_16_1737
4,cop_4.png,g,a,l,4,13,109,19,g,1,0.4835898518,25,m,19,s,60.01491534,SNARC lie 1,2019_Apr_24_1610
7,lawyer_7.png,g,a,t,4,11,107,13,a,1,0.4836019482,36,f,20,d,60.02508316,SNARC lie 2,2019_May_16_1508
1,lawyer_1.png,g,a,t,2,22,70,0,g,1,0.4836118454,23,f,24,d,60.01161484,SNARC lie 1,2019_Apr_18_1730
6,lawyer_6.png,a,g,t,0,11,11,12,a,1,0.4836283406,5,f,22,d,60.06486318,SNARC lie 1,2019_Apr_09_1752
1,lawyer_1.png,g,a,t,4,3,99,0,a,1,0.4836943212,25,m,19,s,60.01491534,SNARC lie 1,2019_Apr_24_1610
1,lawyer_1.png,g,a,t,3,6,78,0,g,1,0.4839281866,5,f,22,d,60.06486318,SNARC lie 1,2019_Apr_09_1752
2,lawyer_2.png,a,g,t,2,7,55,9,a,1,0.4839941673,5,f,22,d,60.06486318,SNARC lie 1,2019_Apr_09_1752
3,lawyer_3.png,g,a,t,1,0,24,2,g,1,0.4840330227,5,f,22,d,60.06486318,SNARC lie 1,2019_Apr_09_1752
9,lawyer_9.png,g,a,t,4,20,116,15,g,1,0.48404182,5,f,22,d,60.06486318,SNARC lie 1,2019_Apr_09_1752
4,lawyer_4.png,a,g,t,2,4,52,11,a,1,0.4840704118,5,f,22,d,60.06486318,SNARC lie 1,2019_Apr_09_1752
4,lawyer_4.png,a,g,t,0,9,9,11,a,1,0.4841345596,5,f,22,d,60.06486318,SNARC lie 1,2019_Apr_09_1752
4,lawyer_4.png,a,g,t,1,0,24,11,a,1,0.4841811127,3,f,20,d,60.01201092,SNARC lie 1,2019_Apr_09_1542
3,lawyer_3.png,g,a,t,2,20,68,10,a,1,0.484181846,25,m,19,s,60.01491534,SNARC lie 1,2019_Apr_24_1610
9,lawyer_9.png,g,a,t,3,8,80,15,a,1,0.4841862442,35,m,21,d,60.01808426,SNARC lie 1,2019_May_16_1301
3,lawyer_3.png,g,a,t,1,18,42,10,a,1,0.4842016401,18,f,23,d,60.01702786,SNARC lie 2,2019_Apr_18_1207
8,lawyer_8.png,a,g,t,1,6,30,6,a,1,0.4842020066,22,f,22,d,60.02178155,SNARC lie 2,2019_Apr_18_1558
6,lawyer_6.png,a,g,t,4,3,99,12,g,1,0.484218502,37,m,24,d,60.1277463,SNARC lie 1,2019_May_16_1648
4,lawyer_4.png,a,g,t,2,21,69,3,g,1,0.4842188684,16,f,27,d,60.02680016,SNARC lie 2,2019_Apr_18_1009
8,lawyer_8.png,a,g,t,4,3,99,6,g,1,0.4842207012,5,f,22,d,60.06486318,SNARC lie 1,2019_Apr_09_1752
8,lawyer_8.png,a,g,t,3,12,84,14,a,1,0.4842305984,25,m,19,s,60.01491534,SNARC lie 1,2019_Apr_24_1610
2,lawyer_2.png,a,g,t,1,16,40,1,a,1,0.4842313319,27,f,24,d,60.02257397,SNARC lie 1,2019_Apr_29_1114
8,lawyer_8.png,a,g,t,4,19,115,6,a,1,0.4842390292,14,m,21,d,60.00686277,SNARC lie 2,2019_Apr_17_1552
1,lawyer_1.png,g,a,t,0,4,4,8,a,1,0.484243428,3,f,20,d,60.01201092,SNARC lie 1,2019_Apr_09_1542
7,lawyer_7.png,g,a,t,2,23,71,13,g,1,0.4842452608,5,f,22,d,60.06486318,SNARC lie 1,2019_Apr_09_1752
7,lawyer_7.png,g,a,t,4,6,102,13,a,1,0.4842463606,22,f,22,d,60.02178155,SNARC lie 2,2019_Apr_18_1558
4,cop_4.png,g,a,l,4,2,98,19,a,1,0.4842478267,25,m,19,s,60.01491534,SNARC lie 1,2019_Apr_24_1610
3,lawyer_3.png,g,a,t,0,3,3,2,a,1,0.4842544249,17,f,26,d,60.03816113,SNARC lie 1,2019_Apr_18_1109
9,lawyer_9.png,g,a,t,4,13,109,15,a,1,0.4842569907,25,m,19,s,60.01491534,SNARC lie 1,2019_Apr_24_1610
4,lawyer_4.png,a,g,t,3,14,86,11,a,1,0.4842573572,35,m,21,d,60.01808426,SNARC lie 1,2019_May_16_1301
9,lawyer_9.png,g,a,t,2,0,48,7,a,1,0.48425919,7,f,24,d,60.00171555,SNARC lie 1,2019_Apr_10_1010
6,lawyer_6.png,a,g,t,1,8,32,12,a,1,0.4842617558,37,m,24,d,60.1277463,SNARC lie 1,2019_May_16_1648
4,lawyer_4.png,a,g,t,4,21,117,11,a,1,0.4842617559,6,f,21,d,60.01676381,SNARC lie 2,2019_Apr_10_0911
3,lawyer_3.png,g,a,t,3,0,72,2,g,1,0.4842621223,27,f,24,d,60.02257397,SNARC lie 1,2019_Apr_29_1114
2,lawyer_2.png,a,g,t,3,4,76,9,a,1,0.4842624892,24,f,21,m,59.99393041,SNARC lie 2,2019_Apr_24_0942
3,lawyer_3.png,g,a,t,1,2,26,10,g,1,0.4842628557,18,f,23,d,60.01702786,SNARC lie 2,2019_Apr_18_1207
6,lawyer_6.png,a,g,t,0,17,17,12,g,1,0.4842654218,21,f,20,d,60.02323421,SNARC lie 1,2019_Apr_18_1508
7,lawyer_7.png,g,a,t,1,22,46,5,g,1,0.4842661545,35,m,21,d,60.01808426,SNARC lie 1,2019_May_16_1301
6,lawyer_6.png,a,g,t,4,4,100,4,g,1,0.4842661547,23,f,24,d,60.01161484,SNARC lie 1,2019_Apr_18_1730
3,lawyer_3.png,g,a,t,4,11,107,2,g,1,0.4842668877,22,f,22,d,60.02178155,SNARC lie 2,2019_Apr_18_1558
8,lawyer_8.png,a,g,t,2,10,58,6,a,1,0.4842668879,37,m,24,d,60.1277463,SNARC lie 1,2019_May_16_1648
2,lawyer_2.png,a,g,t,2,15,63,1,g,1,0.4842668879,37,m,24,d,60.1277463,SNARC lie 1,2019_May_16_1648
8,lawyer_8.png,a,g,t,2,17,65,6,g,1,0.4842694537,6,f,21,d,60.01676381,SNARC lie 2,2019_Apr_10_0911
3,cop_3.png,a,g,l,0,6,6,18,g,1,0.4842694537,37,m,24,d,60.1277463,SNARC lie 1,2019_May_16_1648
4,lawyer_4.png,a,g,t,4,8,104,3,a,1,0.4842705533,21,f,20,d,60.02323421,SNARC lie 1,2019_Apr_18_1508
6,cop_6.png,g,a,l,2,12,60,20,g,1,0.4842709199,8,m,27,d,60.02468695,SNARC lie 2,2019_Apr_10_1125
8,lawyer_8.png,a,g,t,3,9,81,6,g,1,0.48427092,21,f,20,d,60.02323421,SNARC lie 1,2019_Apr_18_1508
1,lawyer_1.png,g,a,t,3,4,76,8,a,1,0.4842712865,7,f,24,d,60.00171555,SNARC lie 1,2019_Apr_10_1010
8,lawyer_8.png,a,g,t,1,17,41,14,g,1,0.4842723862,6,f,21,d,60.01676381,SNARC lie 2,2019_Apr_10_0911
2,lawyer_2.png,a,g,t,3,21,93,9,a,1,0.4842727527,18,f,23,d,60.01702786,SNARC lie 2,2019_Apr_18_1207
6,lawyer_6.png,a,g,t,3,3,75,4,g,1,0.4842731194,16,f,27,d,60.02680016,SNARC lie 2,2019_Apr_18_1009
4,lawyer_4.png,a,g,t,3,3,75,3,a,1,0.4842738528,37,m,24,d,60.1277463,SNARC lie 1,2019_May_16_1648
8,lawyer_8.png,a,g,t,4,10,106,14,g,1,0.4842764181,35,m,21,d,60.01808426,SNARC lie 1,2019_May_16_1301
8,lawyer_8.png,a,g,t,3,23,95,6,a,1,0.4842771515,25,m,19,s,60.01491534,SNARC lie 1,2019_Apr_24_1610
2,cop_2.png,g,a,l,1,3,27,17,a,1,0.484278251,21,f,20,d,60.02323421,SNARC lie 1,2019_Apr_18_1508
6,lawyer_6.png,a,g,t,3,23,95,4,g,1,0.4842786177,7,f,24,d,60.00171555,SNARC lie 1,2019_Apr_10_1010
8,lawyer_8.png,a,g,t,1,19,43,14,g,1,0.4842804505,14,m,21,d,60.00686277,SNARC lie 2,2019_Apr_17_1552
4,lawyer_4.png,a,g,t,2,10,58,3,g,1,0.4842815502,35,m,21,d,60.01808426,SNARC lie 1,2019_May_16_1301
1,lawyer_1.png,g,a,t,3,3,75,8,g,1,0.4842815502,37,m,24,d,60.1277463,SNARC lie 1,2019_May_16_1648
7,lawyer_7.png,g,a,t,1,12,36,13,a,1,0.4842826498,20,f,25,d,60.00527894,SNARC lie 2,2019_Apr_18_1410
8,lawyer_8.png,a,g,t,0,7,7,6,g,1,0.4842844829,29,m,20,d,60.00580693,SNARC lie 1,2019_Apr_30_1119
2,lawyer_2.png,a,g,t,2,19,67,9,g,1,0.4842848493,6,f,21,d,60.01676381,SNARC lie 2,2019_Apr_10_0911
3,lawyer_3.png,g,a,t,3,0,72,10,g,1,0.4842855823,35,m,21,d,60.01808426,SNARC lie 1,2019_May_16_1301
1,lawyer_1.png,g,a,t,4,21,117,0,a,1,0.4842866822,38,f,21,d,60.00791881,SNARC lie 2,2019_May_16_1737
6,lawyer_6.png,a,g,t,3,8,80,12,a,1,0.4842877816,20,f,25,d,60.00527894,SNARC lie 2,2019_Apr_18_1410
1,lawyer_1.png,g,a,t,1,5,29,0,g,1,0.4842885146,18,f,23,d,60.01702786,SNARC lie 2,2019_Apr_18_1207
8,lawyer_8.png,a,g,t,2,9,57,14,a,1,0.4842888811,37,m,24,d,60.1277463,SNARC lie 1,2019_May_16_1648
1,cop_1.png,a,g,l,2,10,58,16,g,1,0.484289248,33,f,20,d,60.02283803,SNARC lie 1,2019_Apr_30_1445
8,lawyer_8.png,a,g,t,4,15,111,14,a,1,0.4842907141,7,f,24,d,60.00171555,SNARC lie 1,2019_Apr_10_1010
2,lawyer_2.png,a,g,t,1,10,34,1,g,1,0.4842907144,36,f,20,d,60.02508316,SNARC lie 2,2019_May_16_1508
4,lawyer_4.png,a,g,t,1,13,37,11,a,1,0.4842914473,6,f,21,d,60.01676381,SNARC lie 2,2019_Apr_10_0911
9,lawyer_9.png,g,a,t,2,16,64,7,g,1,0.4842932801,6,f,21,d,60.01676381,SNARC lie 2,2019_Apr_10_0911
4,lawyer_4.png,a,g,t,1,22,46,3,a,1,0.4842932802,37,m,24,d,60.1277463,SNARC lie 1,2019_May_16_1648
6,lawyer_6.png,a,g,t,1,5,29,4,a,1,0.484295846,23,f,24,d,60.01161484,SNARC lie 1,2019_Apr_18_1730
4,lawyer_4.png,a,g,t,3,19,91,3,a,1,0.4842962124,12,m,24,d,60.00131965,SNARC lie 2,2019_Apr_17_1403
7,lawyer_7.png,g,a,t,0,7,7,5,g,1,0.4842962124,25,m,19,s,60.01491534,SNARC lie 1,2019_Apr_24_1610
3,lawyer_3.png,g,a,t,0,19,19,2,a,1,0.4842973119,36,f,20,d,60.02508316,SNARC lie 2,2019_May_16_1508
2,lawyer_2.png,a,g,t,4,22,118,1,g,1,0.4842973121,17,f,26,d,60.03816113,SNARC lie 1,2019_Apr_18_1109
4,lawyer_4.png,a,g,t,3,13,85,11,g,1,0.4842973123,38,f,21,d,60.00791881,SNARC lie 2,2019_May_16_1737
7,lawyer_7.png,g,a,t,4,10,106,5,a,1,0.4842980453,25,m,19,s,60.01491534,SNARC lie 1,2019_Apr_24_1610
1,cop_1.png,a,g,l,0,21,21,16,g,1,0.4842980453,37,m,24,d,60.1277463,SNARC lie 1,2019_May_16_1648
4,lawyer_4.png,a,g,t,3,9,81,3,a,1,0.4842984122,38,f,21,d,60.00791881,SNARC lie 2,2019_May_16_1737
8,lawyer_8.png,a,g,t,2,11,59,6,g,1,0.4843006115,35,m,21,d,60.01808426,SNARC lie 1,2019_May_16_1301
6,lawyer_6.png,a,g,t,1,21,45,12,g,1,0.484300978,33,f,20,d,60.02283803,SNARC lie 1,2019_Apr_30_1445
1,lawyer_1.png,g,a,t,1,1,25,0,a,1,0.4843013445,23,f,24,d,60.01161484,SNARC lie 1,2019_Apr_18_1730
7,lawyer_7.png,g,a,t,1,12,36,5,a,1,0.484301711,17,f,26,d,60.03816113,SNARC lie 1,2019_Apr_18_1109
1,lawyer_1.png,g,a,t,2,3,51,0,a,1,0.484301711,34,f,23,s,60.01557549,SNARC lie 2,2019_May_16_1156
8,lawyer_8.png,a,g,t,0,8,8,6,a,1,0.4843020776,9,m,27,d,60.0087107,SNARC lie 1,2019_Apr_10_1212
8,lawyer_8.png,a,g,t,2,2,50,14,a,1,0.484302444,7,f,24,d,60.00171555,SNARC lie 1,2019_Apr_10_1010
2,lawyer_2.png,a,g,t,3,19,91,9,a,1,0.4843024444,37,m,24,d,60.1277463,SNARC lie 1,2019_May_16_1648
4,lawyer_4.png,a,g,t,0,10,10,3,g,1,0.4843035437,7,f,24,d,60.00171555,SNARC lie 1,2019_Apr_10_1010
2,lawyer_2.png,a,g,t,1,20,44,9,g,1,0.4843035438,35,m,21,d,60.01808426,SNARC lie 1,2019_May_16_1301
9,lawyer_9.png,g,a,t,1,14,38,15,g,1,0.4843050099,19,f,19,d,60.02878139,SNARC lie 1,2019_Apr_18_1302
8,lawyer_8.png,a,g,t,0,10,10,6,a,1,0.4843050099,22,f,22,d,60.02178155,SNARC lie 2,2019_Apr_18_1558
4,lawyer_4.png,a,g,t,3,0,72,11,g,1,0.4843068428,15,f,19,d,60.03657565,SNARC lie 1,2019_Apr_17_1720
4,lawyer_4.png,a,g,t,3,20,92,3,a,1,0.484306843,38,f,21,d,60.00791881,SNARC lie 2,2019_May_16_1737
1,lawyer_1.png,g,a,t,4,2,98,0,a,1,0.4843072093,24,f,21,m,59.99393041,SNARC lie 2,2019_Apr_24_0942
4,lawyer_4.png,a,g,t,0,19,19,11,g,1,0.4843072095,26,f,24,d,60.01636775,SNARC lie 2,2019_Apr_24_1700
4,lawyer_4.png,a,g,t,1,23,47,11,a,1,0.4843075759,7,f,24,d,60.00171555,SNARC lie 1,2019_Apr_10_1010
7,lawyer_7.png,g,a,t,4,8,104,5,a,1,0.4843094086,16,f,27,d,60.02680016,SNARC lie 2,2019_Apr_18_1009
4,lawyer_4.png,a,g,t,3,6,78,3,g,1,0.4843101418,31,m,21,d,60.02297006,SNARC lie 1,2019_Apr_30_1303
3,lawyer_3.png,g,a,t,3,17,89,2,a,1,0.4843105082,30,m,26,d,60.02297006,SNARC lie 2,2019_Apr_30_1211
4,cop_4.png,g,a,l,1,21,45,19,a,1,0.4843105082,37,m,24,d,60.1277463,SNARC lie 1,2019_May_16_1648
3,lawyer_3.png,g,a,t,2,3,51,2,g,1,0.4843116081,20,f,25,d,60.00527894,SNARC lie 2,2019_Apr_18_1410
4,lawyer_4.png,a,g,t,2,22,70,3,g,1,0.4843116081,22,f,22,d,60.02178155,SNARC lie 2,2019_Apr_18_1558
7,lawyer_7.png,g,a,t,0,4,4,5,g,1,0.4843123411,14,m,21,d,60.00686277,SNARC lie 2,2019_Apr_17_1552
3,cop_3.png,a,g,l,2,11,59,18,a,1,0.4843123412,8,m,27,d,60.02468695,SNARC lie 2,2019_Apr_10_1125
8,cop_8.png,g,a,l,4,20,116,22,g,1,0.4843141739,16,f,27,d,60.02680016,SNARC lie 2,2019_Apr_18_1009
2,lawyer_2.png,a,g,t,4,15,111,1,a,1,0.4843145409,37,m,24,d,60.1277463,SNARC lie 1,2019_May_16_1648
1,lawyer_1.png,g,a,t,0,15,15,8,g,1,0.4843156403,37,m,24,d,60.1277463,SNARC lie 1,2019_May_16_1648
2,lawyer_2.png,a,g,t,2,7,55,9,g,1,0.4843156403,37,m,24,d,60.1277463,SNARC lie 1,2019_May_16_1648
4,lawyer_4.png,a,g,t,4,10,106,3,a,1,0.4843163735,25,m,19,s,60.01491534,SNARC lie 1,2019_Apr_24_1610
7,lawyer_7.png,g,a,t,1,5,29,13,a,1,0.4843174731,36,f,20,d,60.02508316,SNARC lie 2,2019_May_16_1508
9,lawyer_9.png,g,a,t,1,15,39,15,a,1,0.4843178396,37,m,24,d,60.1277463,SNARC lie 1,2019_May_16_1648
1,lawyer_1.png,g,a,t,2,19,67,0,a,1,0.4843178396,37,m,24,d,60.1277463,SNARC lie 1,2019_May_16_1648
1,lawyer_1.png,g,a,t,4,12,108,8,a,1,0.4843189395,31,m,21,d,60.02297006,SNARC lie 1,2019_Apr_30_1303
2,lawyer_2.png,a,g,t,0,4,4,9,g,1,0.4843193057,11,f,21,d,60.03644348,SNARC lie 1,2019_Apr_10_1403
4,lawyer_4.png,a,g,t,4,9,105,11,g,1,0.4843196725,23,f,24,d,60.01161484,SNARC lie 1,2019_Apr_18_1730
1,lawyer_1.png,g,a,t,0,10,10,8,a,1,0.4843200389,36,f,20,d,60.02508316,SNARC lie 2,2019_May_16_1508
8,lawyer_8.png,a,g,t,3,7,79,14,a,1,0.4843204055,7,f,24,d,60.00171555,SNARC lie 1,2019_Apr_10_1010
8,cop_8.png,g,a,l,2,8,56,22,g,1,0.4843211388,36,f,20,d,60.02508316,SNARC lie 2,2019_May_16_1508
4,lawyer_4.png,a,g,t,0,16,16,11,a,1,0.4843218718,18,f,23,d,60.01702786,SNARC lie 2,2019_Apr_18_1207
7,lawyer_7.png,g,a,t,2,13,61,13,g,1,0.4843222382,18,f,23,d,60.01702786,SNARC lie 2,2019_Apr_18_1207
2,lawyer_2.png,a,g,t,3,5,77,9,g,1,0.4843233377,37,m,24,d,60.1277463,SNARC lie 1,2019_May_16_1648
2,lawyer_2.png,a,g,t,1,20,44,9,g,1,0.4843237046,32,f,21,d,60.00791881,SNARC lie 2,2019_Apr_30_1358
4,lawyer_4.png,a,g,t,0,4,4,3,g,1,0.4843240711,24,f,21,m,59.99393041,SNARC lie 2,2019_Apr_24_0942
2,lawyer_2.png,a,g,t,4,6,102,1,a,1,0.4843244376,25,m,19,s,60.01491534,SNARC lie 1,2019_Apr_24_1610
9,lawyer_9.png,g,a,t,3,1,73,15,g,1,0.484325171,22,f,22,d,60.02178155,SNARC lie 2,2019_Apr_18_1558
6,lawyer_6.png,a,g,t,4,1,97,4,g,1,0.4843259039,36,f,20,d,60.02508316,SNARC lie 2,2019_May_16_1508
9,lawyer_9.png,g,a,t,3,2,74,15,g,1,0.4843262704,32,f,21,d,60.00791881,SNARC lie 2,2019_Apr_30_1358
1,lawyer_1.png,g,a,t,0,12,12,8,g,1,0.4843270034,37,m,24,d,60.1277463,SNARC lie 1,2019_May_16_1648
8,lawyer_8.png,a,g,t,1,13,37,14,g,1,0.4843273701,7,f,24,d,60.00171555,SNARC lie 1,2019_Apr_10_1010
6,lawyer_6.png,a,g,t,4,23,119,12,g,1,0.4843273701,23,f,24,d,60.01161484,SNARC lie 1,2019_Apr_18_1730
4,lawyer_4.png,a,g,t,2,6,54,11,g,1,0.4843277365,23,f,24,d,60.01161484,SNARC lie 1,2019_Apr_18_1730
4,lawyer_4.png,a,g,t,2,10,58,3,a,1,0.4843284697,37,m,24,d,60.1277463,SNARC lie 1,2019_May_16_1648
3,lawyer_3.png,g,a,t,4,14,110,10,g,1,0.4843295695,7,f,24,d,60.00171555,SNARC lie 1,2019_Apr_10_1010
4,lawyer_4.png,a,g,t,0,1,1,3,a,1,0.4843295696,37,m,24,d,60.1277463,SNARC lie 1,2019_May_16_1648
6,lawyer_6.png,a,g,t,1,7,31,4,a,1,0.484331036,34,f,23,s,60.01557549,SNARC lie 2,2019_May_16_1156
1,lawyer_1.png,g,a,t,2,15,63,0,a,1,0.4843314025,38,f,21,d,60.00791881,SNARC lie 2,2019_May_16_1737
7,lawyer_7.png,g,a,t,1,1,25,5,g,1,0.4843317687,23,f,24,d,60.01161484,SNARC lie 1,2019_Apr_18_1730
3,lawyer_3.png,g,a,t,4,9,105,10,a,1,0.4843317689,22,f,22,d,60.02178155,SNARC lie 2,2019_Apr_18_1558
8,lawyer_8.png,a,g,t,3,2,74,14,g,1,0.4843321354,37,m,24,d,60.1277463,SNARC lie 1,2019_May_16_1648
2,lawyer_2.png,a,g,t,1,21,45,9,a,1,0.4843325019,23,f,24,d,60.01161484,SNARC lie 1,2019_Apr_18_1730
6,lawyer_6.png,a,g,t,1,7,31,12,g,1,0.4843332353,37,m,24,d,60.1277463,SNARC lie 1,2019_May_16_1648
2,lawyer_2.png,a,g,t,4,12,108,1,a,1,0.4843343347,25,m,19,s,60.01491534,SNARC lie 1,2019_Apr_24_1610
2,lawyer_2.png,a,g,t,3,5,77,9,g,1,0.4843343347,35,m,21,d,60.01808426,SNARC lie 1,2019_May_16_1301
1,lawyer_1.png,g,a,t,4,3,99,0,a,1,0.4843350677,35,m,21,d,60.01808426,SNARC lie 1,2019_May_16_1301
7,lawyer_7.png,g,a,t,3,13,85,13,g,1,0.4843354344,20,f,25,d,60.00527894,SNARC lie 2,2019_Apr_18_1410
4,cop_4.png,g,a,l,2,10,58,19,a,1,0.4843358011,37,m,24,d,60.1277463,SNARC lie 1,2019_May_16_1648
8,lawyer_8.png,a,g,t,4,12,108,6,g,1,0.484336534,23,f,24,d,60.01161484,SNARC lie 1,2019_Apr_18_1730
8,lawyer_8.png,a,g,t,2,21,69,14,g,1,0.4843365342,6,f,21,d,60.01676381,SNARC lie 2,2019_Apr_10_0911
8,lawyer_8.png,a,g,t,1,3,27,14,g,1,0.4843365343,23,f,24,d,60.01161484,SNARC lie 1,2019_Apr_18_1730
4,lawyer_4.png,a,g,t,3,16,88,11,g,1,0.4843372672,22,f,22,d,60.02178155,SNARC lie 2,2019_Apr_18_1558
9,lawyer_9.png,g,a,t,1,11,35,15,g,1,0.4843380004,18,f,23,d,60.01702786,SNARC lie 2,2019_Apr_18_1207
6,lawyer_6.png,a,g,t,4,4,100,12,g,1,0.4843383669,31,m,21,d,60.02297006,SNARC lie 1,2019_Apr_30_1303
6,cop_6.png,g,a,l,0,5,5,20,a,1,0.4843390998,38,f,21,d,60.00791881,SNARC lie 2,2019_May_16_1737
8,lawyer_8.png,a,g,t,3,23,95,6,g,1,0.4843398333,34,f,23,s,60.01557549,SNARC lie 2,2019_May_16_1156
8,lawyer_8.png,a,g,t,0,6,6,6,g,1,0.4843401997,8,m,27,d,60.02468695,SNARC lie 2,2019_Apr_10_1125
2,lawyer_2.png,a,g,t,3,3,75,9,g,1,0.4843401997,33,f,20,d,60.02283803,SNARC lie 1,2019_Apr_30_1445
7,lawyer_7.png,g,a,t,0,10,10,13,a,1,0.4843405664,18,f,23,d,60.01702786,SNARC lie 2,2019_Apr_18_1207
6,lawyer_6.png,a,g,t,0,1,1,4,g,1,0.4843409327,35,m,21,d,60.01808426,SNARC lie 1,2019_May_16_1301
2,lawyer_2.png,a,g,t,4,7,103,1,g,1,0.4843409332,37,m,24,d,60.1277463,SNARC lie 1,2019_May_16_1648
6,lawyer_6.png,a,g,t,3,13,85,4,g,1,0.484341666,8,m,27,d,60.02468695,SNARC lie 2,2019_Apr_10_1125
8,lawyer_8.png,a,g,t,3,4,76,6,a,1,0.4843420326,34,f,23,s,60.01557549,SNARC lie 2,2019_May_16_1156
6,lawyer_6.png,a,g,t,2,20,68,12,g,1,0.4843427655,33,f,20,d,60.02283803,SNARC lie 1,2019_Apr_30_1445
2,lawyer_2.png,a,g,t,3,5,77,9,a,1,0.4843427658,22,f,22,d,60.02178155,SNARC lie 2,2019_Apr_18_1558
8,lawyer_8.png,a,g,t,3,16,88,14,a,1,0.4843427658,22,f,22,d,60.02178155,SNARC lie 2,2019_Apr_18_1558
8,lawyer_8.png,a,g,t,1,22,46,14,g,1,0.4843434985,33,f,20,d,60.02283803,SNARC lie 1,2019_Apr_30_1445
2,lawyer_2.png,a,g,t,4,12,108,9,g,1,0.4843434989,37,m,24,d,60.1277463,SNARC lie 1,2019_May_16_1648
9,lawyer_9.png,g,a,t,2,6,54,7,g,1,0.4843445984,24,f,21,m,59.99393041,SNARC lie 2,2019_Apr_24_0942
6,lawyer_6.png,a,g,t,3,18,90,12,g,1,0.4843460646,11,f,21,d,60.03644348,SNARC lie 1,2019_Apr_10_1403
6,lawyer_6.png,a,g,t,3,17,89,4,g,1,0.4843460647,33,f,20,d,60.02283803,SNARC lie 1,2019_Apr_30_1445
8,lawyer_8.png,a,g,t,4,9,105,6,g,1,0.4843460647,33,f,20,d,60.02283803,SNARC lie 1,2019_Apr_30_1445
2,lawyer_2.png,a,g,t,3,9,81,9,a,1,0.4843471642,27,f,24,d,60.02257397,SNARC lie 1,2019_Apr_29_1114
4,lawyer_4.png,a,g,t,2,21,69,11,g,1,0.4843482641,14,m,21,d,60.00686277,SNARC lie 2,2019_Apr_17_1552
8,lawyer_8.png,a,g,t,0,20,20,6,g,1,0.4843482641,26,f,24,d,60.01636775,SNARC lie 2,2019_Apr_24_1700
9,lawyer_9.png,g,a,t,0,7,7,7,g,1,0.484348997,18,f,23,d,60.01702786,SNARC lie 2,2019_Apr_18_1207
6,lawyer_6.png,a,g,t,2,22,70,12,a,1,0.484348997,31,m,21,d,60.02297006,SNARC lie 1,2019_Apr_30_1303
7,lawyer_7.png,g,a,t,0,16,16,13,g,1,0.4843489972,14,m,21,d,60.00686277,SNARC lie 2,2019_Apr_17_1552
4,lawyer_4.png,a,g,t,3,22,94,3,a,1,0.4843500967,24,f,21,m,59.99393041,SNARC lie 2,2019_Apr_24_0942
2,cop_2.png,g,a,l,2,11,59,17,g,1,0.4843504638,37,m,24,d,60.1277463,SNARC lie 1,2019_May_16_1648
4,lawyer_4.png,a,g,t,1,1,25,3,g,1,0.4843515632,8,m,27,d,60.02468695,SNARC lie 2,2019_Apr_10_1125
4,lawyer_4.png,a,g,t,4,19,115,11,a,1,0.4843519295,25,m,19,s,60.01491534,SNARC lie 1,2019_Apr_24_1610
7,lawyer_7.png,g,a,t,1,16,40,13,a,1,0.4843519297,37,m,24,d,60.1277463,SNARC lie 1,2019_May_16_1648
1,lawyer_1.png,g,a,t,2,4,52,8,g,1,0.4843526627,27,f,24,d,60.02257397,SNARC lie 1,2019_Apr_29_1114
1,lawyer_1.png,g,a,t,1,14,38,0,a,1,0.484354862,24,f,21,m,59.99393041,SNARC lie 2,2019_Apr_24_0942
3,lawyer_3.png,g,a,t,0,3,3,2,g,1,0.4843588942,37,m,24,d,60.1277463,SNARC lie 1,2019_May_16_1648
9,lawyer_9.png,g,a,t,4,18,114,7,g,1,0.4843599938,15,f,19,d,60.03657565,SNARC lie 1,2019_Apr_17_1720
7,lawyer_7.png,g,a,t,3,21,93,13,a,1,0.4843618269,25,m,19,s,60.01491534,SNARC lie 1,2019_Apr_24_1610
6,lawyer_6.png,a,g,t,1,21,45,12,g,1,0.484364026,22,f,22,d,60.02178155,SNARC lie 2,2019_Apr_18_1558
6,lawyer_6.png,a,g,t,2,13,61,12,g,1,0.4843654924,7,f,24,d,60.00171555,SNARC lie 1,2019_Apr_10_1010
1,lawyer_1.png,g,a,t,3,12,84,8,a,1,0.4843669585,20,f,25,d,60.00527894,SNARC lie 2,2019_Apr_18_1410
4,lawyer_4.png,a,g,t,2,13,61,11,a,1,0.4843680582,25,m,19,s,60.01491534,SNARC lie 1,2019_Apr_24_1610
7,lawyer_7.png,g,a,t,0,11,11,13,a,1,0.4843706242,37,m,24,d,60.1277463,SNARC lie 1,2019_May_16_1648
2,lawyer_2.png,a,g,t,1,1,25,9,g,1,0.4843720905,22,f,22,d,60.02178155,SNARC lie 2,2019_Apr_18_1558
7,lawyer_7.png,g,a,t,0,15,15,5,a,1,0.4843728235,23,f,24,d,60.01161484,SNARC lie 1,2019_Apr_18_1730
1,lawyer_1.png,g,a,t,4,5,101,0,a,1,0.48437319,31,m,21,d,60.02297006,SNARC lie 1,2019_Apr_30_1303
6,lawyer_6.png,a,g,t,2,6,54,4,a,1,0.4843739234,37,m,24,d,60.1277463,SNARC lie 1,2019_May_16_1648
7,lawyer_7.png,g,a,t,2,6,54,5,g,1,0.4843742898,11,f,21,d,60.03644348,SNARC lie 1,2019_Apr_10_1403
6,lawyer_6.png,a,g,t,1,21,45,12,g,1,0.4843775888,25,m,19,s,60.01491534,SNARC lie 1,2019_Apr_24_1610
6,lawyer_6.png,a,g,t,0,5,5,4,g,1,0.4843786885,24,f,21,m,59.99393041,SNARC lie 2,2019_Apr_24_0942
2,lawyer_2.png,a,g,t,4,11,107,9,a,1,0.4843805213,20,f,25,d,60.00527894,SNARC lie 2,2019_Apr_18_1410
1,lawyer_1.png,g,a,t,0,13,13,0,a,1,0.4843838203,7,f,24,d,60.00171555,SNARC lie 1,2019_Apr_10_1010
7,lawyer_7.png,g,a,t,2,5,53,13,a,1,0.4843838203,22,f,22,d,60.02178155,SNARC lie 2,2019_Apr_18_1558
9,lawyer_9.png,g,a,t,1,5,29,15,g,1,0.4843889523,6,f,21,d,60.01676381,SNARC lie 2,2019_Apr_10_0911
9,lawyer_9.png,g,a,t,3,4,76,15,a,1,0.4843911516,7,f,24,d,60.00171555,SNARC lie 1,2019_Apr_10_1010
8,lawyer_8.png,a,g,t,1,3,27,14,a,1,0.4843922511,22,f,22,d,60.02178155,SNARC lie 2,2019_Apr_18_1558
9,lawyer_9.png,g,a,t,2,18,66,7,g,1,0.4843940842,27,f,24,d,60.02257397,SNARC lie 1,2019_Apr_29_1114
4,lawyer_4.png,a,g,t,1,4,28,3,a,1,0.4844028815,7,f,24,d,60.00171555,SNARC lie 1,2019_Apr_10_1010
6,lawyer_6.png,a,g,t,4,17,113,12,g,1,0.4844047143,25,m,19,s,60.01491534,SNARC lie 1,2019_Apr_24_1610
9,lawyer_9.png,g,a,t,0,5,5,7,g,1,0.4844091134,33,f,20,d,60.02283803,SNARC lie 1,2019_Apr_30_1445
6,lawyer_6.png,a,g,t,4,1,97,4,g,1,0.4844098459,33,f,20,d,60.02283803,SNARC lie 1,2019_Apr_30_1445
2,lawyer_2.png,a,g,t,2,10,58,9,a,1,0.4844124119,25,m,19,s,60.01491534,SNARC lie 1,2019_Apr_24_1610
1,lawyer_1.png,g,a,t,2,14,62,8,a,1,0.4844146115,18,f,23,d,60.01702786,SNARC lie 2,2019_Apr_18_1207
4,lawyer_4.png,a,g,t,4,12,108,3,a,1,0.4844193766,15,f,19,d,60.03657565,SNARC lie 1,2019_Apr_17_1720
3,lawyer_3.png,g,a,t,2,22,70,10,a,1,0.4844237755,26,f,24,d,60.01636775,SNARC lie 2,2019_Apr_24_1700
7,lawyer_7.png,g,a,t,4,20,116,5,a,1,0.4844241419,23,f,24,d,60.01161484,SNARC lie 1,2019_Apr_18_1730
3,lawyer_3.png,g,a,t,2,18,66,10,g,1,0.4844366047,37,m,24,d,60.1277463,SNARC lie 1,2019_May_16_1648
8,lawyer_8.png,a,g,t,4,15,111,6,g,1,0.4844446692,26,f,24,d,60.01636775,SNARC lie 2,2019_Apr_24_1700
6,cop_6.png,g,a,l,1,14,38,20,g,1,0.4844692289,38,f,21,d,60.00791881,SNARC lie 2,2019_May_16_1737
6,lawyer_6.png,a,g,t,1,12,36,12,a,1,0.4845084506,37,m,24,d,60.1277463,SNARC lie 1,2019_May_16_1648
2,lawyer_2.png,a,g,t,1,22,46,9,a,1,0.4845370424,14,m,21,d,60.00686277,SNARC lie 2,2019_Apr_17_1552
6,lawyer_6.png,a,g,t,4,1,97,4,a,1,0.4845542707,37,m,24,d,60.1277463,SNARC lie 1,2019_May_16_1648
4,lawyer_4.png,a,g,t,3,8,80,3,g,1,0.4846470105,33,f,20,d,60.02283803,SNARC lie 1,2019_Apr_30_1445
7,lawyer_7.png,g,a,t,2,3,51,5,g,1,0.4847111581,18,f,23,d,60.01702786,SNARC lie 2,2019_Apr_18_1207
9,lawyer_9.png,g,a,t,4,5,101,7,a,1,0.4848431197,20,f,25,d,60.00527894,SNARC lie 2,2019_Apr_18_1410
9,lawyer_9.png,g,a,t,3,13,85,7,g,1,0.4849083673,22,f,22,d,60.02178155,SNARC lie 2,2019_Apr_18_1558
2,lawyer_2.png,a,g,t,0,9,9,1,a,1,0.4929763481,11,f,21,d,60.03644348,SNARC lie 1,2019_Apr_10_1403
6,lawyer_6.png,a,g,t,2,1,49,4,g,1,0.5000663472,25,m,19,s,60.01491534,SNARC lie 1,2019_Apr_24_1610
9,lawyer_9.png,g,a,t,3,12,84,7,a,1,0.5002049069,3,f,20,d,60.01201092,SNARC lie 1,2019_Apr_09_1542
4,lawyer_4.png,a,g,t,1,15,39,11,g,1,0.5002276336,8,m,27,d,60.02468695,SNARC lie 2,2019_Apr_10_1125
8,lawyer_8.png,a,g,t,4,23,119,6,a,1,0.5002290998,7,f,24,d,60.00171555,SNARC lie 1,2019_Apr_10_1010
8,lawyer_8.png,a,g,t,2,12,60,14,g,1,0.5002353315,17,f,26,d,60.03816113,SNARC lie 1,2019_Apr_18_1109
4,lawyer_4.png,a,g,t,0,5,5,11,g,1,0.5002371642,11,f,21,d,60.03644348,SNARC lie 1,2019_Apr_10_1403
7,lawyer_7.png,g,a,t,1,22,46,13,g,1,0.5002378973,18,f,23,d,60.01702786,SNARC lie 2,2019_Apr_18_1207
1,cop_1.png,a,g,l,4,7,103,16,g,1,0.5002415628,7,f,24,d,60.00171555,SNARC lie 1,2019_Apr_10_1010
8,lawyer_8.png,a,g,t,1,0,24,6,a,1,0.5002481611,37,m,24,d,60.1277463,SNARC lie 1,2019_May_16_1648
1,lawyer_1.png,g,a,t,2,15,63,0,a,1,0.5002485274,12,m,24,d,60.00131965,SNARC lie 2,2019_Apr_17_1403
6,lawyer_6.png,a,g,t,1,4,28,12,g,1,0.5002565917,18,f,23,d,60.01702786,SNARC lie 2,2019_Apr_18_1207
8,lawyer_8.png,a,g,t,4,0,96,6,g,1,0.5002620905,31,m,21,d,60.02297006,SNARC lie 1,2019_Apr_30_1303
6,lawyer_6.png,a,g,t,2,12,60,12,g,1,0.5002730871,25,m,19,s,60.01491534,SNARC lie 1,2019_Apr_24_1610
3,lawyer_3.png,g,a,t,3,5,77,2,a,1,0.5002826175,24,f,21,m,59.99393041,SNARC lie 2,2019_Apr_24_0942
1,lawyer_1.png,g,a,t,3,12,84,8,a,1,0.5004402383,25,m,19,s,60.01491534,SNARC lie 1,2019_Apr_24_1610
2,lawyer_2.png,a,g,t,2,14,62,9,g,1,0.5005721998,3,f,20,d,60.01201092,SNARC lie 1,2019_Apr_09_1542
4,lawyer_4.png,a,g,t,1,10,34,3,a,1,0.5006183863,5,f,22,d,60.06486318,SNARC lie 1,2019_Apr_09_1752
4,lawyer_4.png,a,g,t,0,2,2,3,g,1,0.500686933,1,f,27,d,59.90355943,SNARC lie 1,2019_Apr_01_1630
4,lawyer_4.png,a,g,t,3,10,82,11,g,1,0.5007217564,21,f,20,d,60.02323421,SNARC lie 1,2019_Apr_18_1508
4,lawyer_4.png,a,g,t,4,16,112,3,a,1,0.5007580457,3,f,20,d,60.01201092,SNARC lie 1,2019_Apr_09_1542
6,lawyer_6.png,a,g,t,4,18,114,12,a,1,0.5007613447,5,f,22,d,60.06486318,SNARC lie 1,2019_Apr_09_1752
2,lawyer_2.png,a,g,t,1,17,41,9,g,1,0.5008009331,3,f,20,d,60.01201092,SNARC lie 1,2019_Apr_09_1542
6,lawyer_6.png,a,g,t,3,14,86,12,g,1,0.5008207273,5,f,22,d,60.06486318,SNARC lie 1,2019_Apr_09_1752
7,lawyer_7.png,g,a,t,0,1,1,5,g,1,0.5008236598,4,f,24,d,60.03340485,SNARC lie 2,2019_Apr_09_1700
6,lawyer_6.png,a,g,t,3,15,87,4,a,1,0.5008236598,5,f,22,d,60.06486318,SNARC lie 1,2019_Apr_09_1752
4,lawyer_4.png,a,g,t,0,9,9,11,g,1,0.5008302579,5,f,22,d,60.06486318,SNARC lie 1,2019_Apr_09_1752
9,lawyer_9.png,g,a,t,3,11,83,7,g,1,0.5008460199,24,f,21,m,59.99393041,SNARC lie 2,2019_Apr_24_0942
6,lawyer_6.png,a,g,t,3,13,85,12,a,1,0.5008529848,27,f,24,d,60.02257397,SNARC lie 1,2019_Apr_29_1114
7,lawyer_7.png,g,a,t,4,9,105,13,g,1,0.5008610488,6,f,21,d,60.01676381,SNARC lie 2,2019_Apr_10_0911
8,lawyer_8.png,a,g,t,2,9,57,6,g,1,0.5008636147,23,f,24,d,60.01161484,SNARC lie 1,2019_Apr_18_1730
